{
  "participant_id": "67973937-6d27-4880-b5c8-2fcf0c3a12e9",
  "session_id": "9bedb240-1c93-4528-ba8b-eeb342d9bdc8",
  "created_at": "2026-04-11T05:56:02.758Z",
  "baseline": {
    "age_group": "18-24",
    "digital_confidence": "Low",
    "page_style": "Step-by-step guidance",
    "guidance_need": "Never",
    "screen_distraction": "Slightly",
    "dense_content_tolerance": "Uncomfortable",
    "content_format": "Visual summaries / infographics"
  },
  "tasks": {
    "task1": {
      "answer": "A book about marketing",
      "correct": 0,
      "time_on_task_ms": 3915,
      "question_time_ms": 2099,
      "answer_changes": 0,
      "backtracking": 0,
      "hesitation": 0,
      "errors": 1
    },
    "task2": {
      "answer": "Room C301",
      "correct": 0,
      "time_on_task_ms": 3433,
      "question_time_ms": 1549,
      "answer_changes": 0,
      "backtracking": 0,
      "hesitation": 0,
      "errors": 1
    }
  },
  "raw_trials": [
    {
      "rt": 1117,
      "stimulus": "\n        <div class=\"card\">\n          <div class=\"logo-wrap\">\n            <img src=\"jyu-logo.svg\" alt=\"University of Jyvaskyla logo\" onerror=\"this.style.display='none'\">\n          </div>\n          <h1>Welcome to the University of Jyvaskyla</h1>\n          <p>Thank you for taking part in this short research demo.</p>\n          <p class=\"muted\">\n            This prototype demonstrates baseline profiling, task-based behavioural logging, WebGazer-based attention capture, and adaptive interface recommendation.\n          </p>\n        </div>\n      ",
      "response": 0,
      "phase": "university_intro",
      "trial_type": "html-button-response",
      "trial_index": 0,
      "time_elapsed": 1119,
      "internal_node_id": "0.0-0.0"
    },
    {
      "rt": 4199,
      "stimulus": "\n        <div class=\"card\">\n          <h2>Prototype Check</h2>\n          <p>This MVP runs in the browser and connects to a local backend for saving data and generating an adaptive recommendation.</p>\n          <p class=\"muted\">WebGazer will start here. If camera access is granted, lightweight gaze data will be collected during the reading screens.</p>\n          <p id=\"webgazer-status\" class=\"small-note\">Initializing WebGazer...</p>\n        </div>\n      ",
      "response": 0,
      "phase": "prototype_check",
      "trial_type": "html-button-response",
      "trial_index": 1,
      "time_elapsed": 5319,
      "internal_node_id": "0.0-1.0"
    },
    {
      "rt": 12216,
      "response": {
        "age_group": "18-24",
        "digital_confidence": "Low",
        "page_style": "Step-by-step guidance",
        "guidance_need": "Never",
        "screen_distraction": "Slightly",
        "dense_content_tolerance": "Uncomfortable",
        "content_format": "Visual summaries / infographics"
      },
      "phase": "baseline",
      "trial_type": "survey-html-form",
      "trial_index": 2,
      "time_elapsed": 17537,
      "internal_node_id": "0.0-2.0"
    },
    {
      "rt": 948,
      "stimulus": "\n        <div class=\"card\">\n          <h2>Task 1</h2>\n          <p>Read the paragraph carefully, then answer one question.</p>\n        </div>\n      ",
      "response": 0,
      "phase": "task1_intro",
      "trial_type": "html-button-response",
      "trial_index": 3,
      "time_elapsed": 18486,
      "internal_node_id": "0.0-3.0"
    },
    {
      "rt": 866,
      "stimulus": "\n        <div class=\"card\">\n          <h2>Reading Task</h2>\n          <div id=\"task1-text-region\" class=\"info-box\">Lina is a university student who usually studies in the library after her classes. On Monday, she arrived at the library at 3:00 PM, spent one hour reading a research article, then worked on an assignment for two more hours. Before leaving, she borrowed a book about user experience design.</div>\n        </div>\n      ",
      "response": 0,
      "phase": "task1_reading",
      "trial_type": "html-button-response",
      "trial_index": 4,
      "time_elapsed": 19352,
      "internal_node_id": "0.0-4.0-0.0"
    },
    {
      "rt": 2099,
      "response": {
        "task1_answer": "A book about marketing"
      },
      "question_order": [
        0
      ],
      "phase": "task1_question",
      "trial_type": "survey-multi-choice",
      "trial_index": 5,
      "time_elapsed": 21452,
      "internal_node_id": "0.0-4.0-1.0",
      "user_answer": "A book about marketing",
      "correct_answer": "A book about user experience design",
      "correct": 0,
      "time_on_task_ms": 3915,
      "question_time_ms": 2099,
      "answer_changes": 0,
      "backtracking": 0,
      "hesitation": 0,
      "errors": 1
    },
    {
      "rt": 748,
      "stimulus": "\n        <div class=\"card\">\n          <h2>Task 2</h2>\n          <p>Read the information card and answer one question based on it.</p>\n        </div>\n      ",
      "response": 0,
      "phase": "task2_intro",
      "trial_type": "html-button-response",
      "trial_index": 6,
      "time_elapsed": 22202,
      "internal_node_id": "0.0-5.0"
    },
    {
      "rt": 1134,
      "stimulus": "\n        <div class=\"card\">\n          <h2>Workshop Information</h2>\n          <div id=\"task2-info-region\" class=\"info-box\">\n        <strong>Title:</strong> Introduction to Human-Computer Interaction<br>\n        <strong>Date:</strong> Thursday, May 15<br>\n        <strong>Time:</strong> 10:00 AM - 12:00 PM<br>\n        <strong>Location:</strong> Room B204<br>\n        <strong>Instructor:</strong> Dr. Sami\n      </div>\n        </div>\n      ",
      "response": 0,
      "phase": "task2_info",
      "trial_type": "html-button-response",
      "trial_index": 7,
      "time_elapsed": 23336,
      "internal_node_id": "0.0-6.0-0.0"
    },
    {
      "rt": 1549,
      "response": {
        "task2_answer": "Room C301"
      },
      "question_order": [
        0
      ],
      "phase": "task2_question",
      "trial_type": "survey-multi-choice",
      "trial_index": 8,
      "time_elapsed": 24886,
      "internal_node_id": "0.0-6.0-1.0",
      "user_answer": "Room C301",
      "correct_answer": "Room B204",
      "correct": 0,
      "time_on_task_ms": 3433,
      "question_time_ms": 1549,
      "answer_changes": 0,
      "backtracking": 0,
      "hesitation": 0,
      "errors": 1
    },
    {
      "rt": 2215,
      "stimulus": "\n          <div class=\"card\">\n            <h2>Experiment Completed</h2>\n            <p>Here is a clear summary of your responses, behavioral metrics, and lightweight gaze indicators.</p>\n\n            <div class=\"summary-grid\">\n              <div class=\"summary-item\">\n                <span class=\"summary-label\">Age group</span>\n                <div class=\"summary-value\">18-24</div>\n              </div>\n\n              <div class=\"summary-item\">\n                <span class=\"summary-label\">Digital confidence</span>\n                <div class=\"summary-value\">Low</div>\n              </div>\n\n              <div class=\"summary-item\">\n                <span class=\"summary-label\">Preferred page style</span>\n                <div class=\"summary-value\">Step-by-step guidance</div>\n              </div>\n\n              <div class=\"summary-item\">\n                <span class=\"summary-label\">Guidance need</span>\n                <div class=\"summary-value\">Never</div>\n              </div>\n\n              <div class=\"summary-item\">\n                <span class=\"summary-label\">Distraction sensitivity</span>\n                <div class=\"summary-value\">Slightly</div>\n              </div>\n\n              <div class=\"summary-item\">\n                <span class=\"summary-label\">Dense-content comfort</span>\n                <div class=\"summary-value\">Uncomfortable</div>\n              </div>\n\n              <div class=\"summary-item\">\n                <span class=\"summary-label\">Preferred content format</span>\n                <div class=\"summary-value\">Visual summaries / infographics</div>\n              </div>\n\n              <div class=\"summary-item\">\n                <span class=\"summary-label\">Task 1 result</span>\n                <div class=\"summary-value\">\n                  <span class=\"status-pill status-wrong\">Incorrect</span>\n                  <div class=\"metric-list\">\n                    <div class=\"metric-line\"><strong>Your answer:</strong> A book about marketing</div>\n                    <div class=\"metric-line\"><strong>Correct answer:</strong> A book about user experience design</div>\n                    <div class=\"metric-line\"><strong>Time on task:</strong> 3.92 s</div>\n                    <div class=\"metric-line\"><strong>Question time:</strong> 2.10 s</div>\n                    <div class=\"metric-line\"><strong>Errors:</strong> 1</div>\n                    <div class=\"metric-line\"><strong>Answer changes:</strong> 0</div>\n                    <div class=\"metric-line\"><strong>Hesitation:</strong> No</div>\n                    <div class=\"metric-line\"><strong>Backtracking:</strong> No</div>\n                    <div class=\"metric-line\"><strong>Gaze samples:</strong> 0</div>\n                    <div class=\"metric-line\"><strong>On-target ratio:</strong> -</div>\n                  </div>\n                </div>\n              </div>\n\n              <div class=\"summary-item\">\n                <span class=\"summary-label\">Task 2 result</span>\n                <div class=\"summary-value\">\n                  <span class=\"status-pill status-wrong\">Incorrect</span>\n                  <div class=\"metric-list\">\n                    <div class=\"metric-line\"><strong>Your answer:</strong> Room C301</div>\n                    <div class=\"metric-line\"><strong>Correct answer:</strong> Room B204</div>\n                    <div class=\"metric-line\"><strong>Time on task:</strong> 3.43 s</div>\n                    <div class=\"metric-line\"><strong>Question time:</strong> 1.55 s</div>\n                    <div class=\"metric-line\"><strong>Errors:</strong> 1</div>\n                    <div class=\"metric-line\"><strong>Answer changes:</strong> 0</div>\n                    <div class=\"metric-line\"><strong>Hesitation:</strong> No</div>\n                    <div class=\"metric-line\"><strong>Backtracking:</strong> No</div>\n                    <div class=\"metric-line\"><strong>Gaze samples:</strong> 0</div>\n                    <div class=\"metric-line\"><strong>On-target ratio:</strong> -</div>\n                  </div>\n                </div>\n              </div>\n            </div>\n\n            <div class=\"score-box\">\n              <div><strong>Overall score: 0 / 2</strong></div>\n              <div style=\"margin-top:8px;\"><strong>Errors:</strong> 2</div>\n              <div style=\"margin-top:8px;\"><strong>WebGazer:</strong> Fallback mode</div>\n            </div>\n          </div>\n        ",
      "response": 0,
      "phase": "end_screen",
      "trial_type": "html-button-response",
      "trial_index": 9,
      "time_elapsed": 27102,
      "internal_node_id": "0.0-7.0"
    }
  ],
  "gaze": {
    "webgazer_ready": false,
    "task1_reading": {
      "metrics": {
        "total_samples": 0,
        "in_target_samples": 0,
        "on_target_ratio": null
      },
      "raw_samples": []
    },
    "task2_info": {
      "metrics": {
        "total_samples": 0,
        "in_target_samples": 0,
        "on_target_ratio": null
      },
      "raw_samples": []
    }
  }
}