{
  "participant_id": "72c7b2ea-73a0-4a7b-b0e8-de9f31a63a66",
  "session_id": "9e5ce92e-4806-4abd-99ce-2843a527cfbd",
  "created_at": "2026-04-11T06:37:16.504Z",
  "baseline": {
    "age_group": "18-24",
    "digital_confidence": "Low",
    "page_style": "Step-by-step guidance",
    "guidance_need": "Rarely",
    "screen_distraction": "Slightly",
    "dense_content_tolerance": "Very uncomfortable",
    "content_format": "Visual summaries / infographics"
  },
  "tasks": {
    "task1": {
      "answer": "A book about user experience design",
      "correct": 1,
      "time_on_task_ms": 28982,
      "question_time_ms": 3233,
      "answer_changes": 0,
      "backtracking": 2,
      "hesitation": 0,
      "errors": 0
    },
    "task2": {
      "answer": "Room C301",
      "correct": 0,
      "time_on_task_ms": 3850,
      "question_time_ms": 1650,
      "answer_changes": 0,
      "backtracking": 0,
      "hesitation": 0,
      "errors": 1
    }
  },
  "raw_trials": [
    {
      "rt": 1501,
      "stimulus": "\n          <div class=\"card\">\n            <div class=\"logo-wrap\">\n              <img src=\"jyu-logo.svg\" alt=\"University of Jyvaskyla logo\" onerror=\"this.style.display='none'\">\n            </div>\n            <h1>Welcome to the University of Jyväskylä</h1>\n            <p>Thank you for taking part in this short research demo.</p>\n            <p class=\"muted\">This prototype demonstrates baseline profiling, WebGazer-based attention capture, behavioural logging, and adaptive interface recommendation.</p>\n          </div>\n        ",
      "response": 0,
      "phase": "university_intro",
      "trial_type": "html-button-response",
      "trial_index": 0,
      "time_elapsed": 1507,
      "internal_node_id": "0.0-0.0"
    },
    {
      "rt": 21914,
      "stimulus": "\n          <div class=\"card\">\n            <h2>Prototype Check</h2>\n            <p>This MVP runs in the browser and connects to a local backend for saving data and generating an adaptive recommendation.</p>\n            <p class=\"muted\">WebGazer starts here. If camera access is granted, lightweight gaze data will be collected during the reading screens.</p>\n            <p id=\"webgazer-status\" class=\"small-note\">Initializing WebGazer...</p>\n          </div>\n        ",
      "response": 0,
      "phase": "prototype_check",
      "trial_type": "html-button-response",
      "trial_index": 1,
      "time_elapsed": 23423,
      "internal_node_id": "0.0-1.0"
    },
    {
      "rt": 22715,
      "response": {
        "age_group": "18-24",
        "digital_confidence": "Low",
        "page_style": "Step-by-step guidance",
        "guidance_need": "Rarely",
        "screen_distraction": "Slightly",
        "dense_content_tolerance": "Very uncomfortable",
        "content_format": "Visual summaries / infographics"
      },
      "phase": "baseline",
      "trial_type": "survey-html-form",
      "trial_index": 2,
      "time_elapsed": 46141,
      "internal_node_id": "0.0-2.0"
    },
    {
      "rt": 1098,
      "stimulus": "\n          <div class=\"card\">\n            <h2>Task 1</h2>\n            <p>Read the paragraph carefully, then answer one question.</p>\n          </div>\n        ",
      "response": 0,
      "phase": "task1_intro",
      "trial_type": "html-button-response",
      "trial_index": 3,
      "time_elapsed": 47240,
      "internal_node_id": "0.0-3.0"
    },
    {
      "rt": 999,
      "stimulus": "\n          <div class=\"card\">\n            <h2>Reading Task</h2>\n            <div id=\"task1-text-region\" class=\"info-box\">Lina is a university student who usually studies in the library after her classes. On Monday, she arrived at the library at 3:00 PM, spent one hour reading a research article, then worked on an assignment for two more hours. Before leaving, she borrowed a book about user experience design.</div>\n          </div>\n        ",
      "response": 0,
      "phase": "task1_reading",
      "trial_type": "html-button-response",
      "trial_index": 4,
      "time_elapsed": 48240,
      "internal_node_id": "0.0-4.0-0.0"
    },
    {
      "phase": "task1_question",
      "backtrack_only": true,
      "trial_type": "survey-multi-choice",
      "trial_index": 5,
      "time_elapsed": 51391,
      "internal_node_id": "0.0-4.0-1.0"
    },
    {
      "rt": 2415,
      "stimulus": "\n          <div class=\"card\">\n            <h2>Reading Task</h2>\n            <div id=\"task1-text-region\" class=\"info-box\">Lina is a university student who usually studies in the library after her classes. On Monday, she arrived at the library at 3:00 PM, spent one hour reading a research article, then worked on an assignment for two more hours. Before leaving, she borrowed a book about user experience design.</div>\n          </div>\n        ",
      "response": 0,
      "phase": "task1_reading",
      "trial_type": "html-button-response",
      "trial_index": 6,
      "time_elapsed": 53807,
      "internal_node_id": "0.0-4.1-0.1"
    },
    {
      "phase": "task1_question",
      "backtrack_only": true,
      "trial_type": "survey-multi-choice",
      "trial_index": 7,
      "time_elapsed": 60806,
      "internal_node_id": "0.0-4.1-1.1"
    },
    {
      "rt": 11084,
      "stimulus": "\n          <div class=\"card\">\n            <h2>Reading Task</h2>\n            <div id=\"task1-text-region\" class=\"info-box\">Lina is a university student who usually studies in the library after her classes. On Monday, she arrived at the library at 3:00 PM, spent one hour reading a research article, then worked on an assignment for two more hours. Before leaving, she borrowed a book about user experience design.</div>\n          </div>\n        ",
      "response": 0,
      "phase": "task1_reading",
      "trial_type": "html-button-response",
      "trial_index": 8,
      "time_elapsed": 71891,
      "internal_node_id": "0.0-4.2-0.2"
    },
    {
      "rt": 3232,
      "response": {
        "task1_answer": "A book about user experience design"
      },
      "question_order": [
        0
      ],
      "phase": "task1_question",
      "trial_type": "survey-multi-choice",
      "trial_index": 9,
      "time_elapsed": 75124,
      "internal_node_id": "0.0-4.2-1.2",
      "user_answer": "A book about user experience design",
      "correct_answer": "A book about user experience design",
      "correct": 1,
      "time_on_task_ms": 28982,
      "question_time_ms": 3233,
      "answer_changes": 0,
      "backtracking": 2,
      "hesitation": 0,
      "errors": 0
    },
    {
      "rt": 965,
      "stimulus": "\n          <div class=\"card\">\n            <h2>Task 2</h2>\n            <p>Read the information card and answer one question based on it.</p>\n          </div>\n        ",
      "response": 0,
      "phase": "task2_intro",
      "trial_type": "html-button-response",
      "trial_index": 10,
      "time_elapsed": 76091,
      "internal_node_id": "0.0-5.0"
    },
    {
      "rt": 1233,
      "stimulus": "\n          <div class=\"card\">\n            <h2>Workshop Information</h2>\n            <div id=\"task2-info-region\" class=\"info-box\">\n          <strong>Title:</strong> Introduction to Human-Computer Interaction<br>\n          <strong>Date:</strong> Thursday, May 15<br>\n          <strong>Time:</strong> 10:00 AM - 12:00 PM<br>\n          <strong>Location:</strong> Room B204<br>\n          <strong>Instructor:</strong> Dr. Sami\n        </div>\n          </div>\n        ",
      "response": 0,
      "phase": "task2_info",
      "trial_type": "html-button-response",
      "trial_index": 11,
      "time_elapsed": 77324,
      "internal_node_id": "0.0-6.0-0.0"
    },
    {
      "rt": 1650,
      "response": {
        "task2_answer": "Room C301"
      },
      "question_order": [
        0
      ],
      "phase": "task2_question",
      "trial_type": "survey-multi-choice",
      "trial_index": 12,
      "time_elapsed": 78974,
      "internal_node_id": "0.0-6.0-1.0",
      "user_answer": "Room C301",
      "correct_answer": "Room B204",
      "correct": 0,
      "time_on_task_ms": 3850,
      "question_time_ms": 1650,
      "answer_changes": 0,
      "backtracking": 0,
      "hesitation": 0,
      "errors": 1
    },
    {
      "rt": 51396,
      "stimulus": "\n            <div class=\"card\">\n              <h2>Experiment Completed</h2>\n              <p>Here is a summary of your baseline answers, behavioural metrics, and WebGazer-derived indicators.</p>\n\n              <div class=\"summary-grid\">\n                <div class=\"summary-item\">\n                  <span class=\"summary-label\">Age group</span>\n                  <div class=\"summary-value\">18-24</div>\n                </div>\n\n                <div class=\"summary-item\">\n                  <span class=\"summary-label\">Digital confidence</span>\n                  <div class=\"summary-value\">Low</div>\n                </div>\n\n                <div class=\"summary-item\">\n                  <span class=\"summary-label\">Preferred page style</span>\n                  <div class=\"summary-value\">Step-by-step guidance</div>\n                </div>\n\n                <div class=\"summary-item\">\n                  <span class=\"summary-label\">Guidance need</span>\n                  <div class=\"summary-value\">Rarely</div>\n                </div>\n\n                <div class=\"summary-item\">\n                  <span class=\"summary-label\">Distraction sensitivity</span>\n                  <div class=\"summary-value\">Slightly</div>\n                </div>\n\n                <div class=\"summary-item\">\n                  <span class=\"summary-label\">Dense-content comfort</span>\n                  <div class=\"summary-value\">Very uncomfortable</div>\n                </div>\n\n                <div class=\"summary-item\">\n                  <span class=\"summary-label\">Preferred content format</span>\n                  <div class=\"summary-value\">Visual summaries / infographics</div>\n                </div>\n\n                <div class=\"summary-item\">\n                  <span class=\"summary-label\">Task 1 result</span>\n                  <div class=\"summary-value\">\n                    <span class=\"status-pill status-correct\">Correct</span>\n                    <div class=\"metric-list\">\n                      <div class=\"metric-line\"><strong>Your answer:</strong> A book about user experience design</div>\n                      <div class=\"metric-line\"><strong>Correct answer:</strong> A book about user experience design</div>\n                      <div class=\"metric-line\"><strong>Time on task:</strong> 28.98 s</div>\n                      <div class=\"metric-line\"><strong>Question time:</strong> 3.23 s</div>\n                      <div class=\"metric-line\"><strong>Errors:</strong> 0</div>\n                      <div class=\"metric-line\"><strong>Answer changes:</strong> 0</div>\n                      <div class=\"metric-line\"><strong>Hesitation:</strong> No</div>\n                      <div class=\"metric-line\"><strong>Backtracking:</strong> Yes</div>\n                      <div class=\"metric-line\"><strong>Gaze samples:</strong> 0</div>\n                      <div class=\"metric-line\"><strong>On-target ratio:</strong> -</div>\n                      <div class=\"metric-line\"><strong>First fixation latency:</strong> -</div>\n                      <div class=\"metric-line\"><strong>Dwell time on target:</strong> 0.00 s</div>\n                    </div>\n                  </div>\n                </div>\n\n                <div class=\"summary-item\">\n                  <span class=\"summary-label\">Task 2 result</span>\n                  <div class=\"summary-value\">\n                    <span class=\"status-pill status-wrong\">Incorrect</span>\n                    <div class=\"metric-list\">\n                      <div class=\"metric-line\"><strong>Your answer:</strong> Room C301</div>\n                      <div class=\"metric-line\"><strong>Correct answer:</strong> Room B204</div>\n                      <div class=\"metric-line\"><strong>Time on task:</strong> 3.85 s</div>\n                      <div class=\"metric-line\"><strong>Question time:</strong> 1.65 s</div>\n                      <div class=\"metric-line\"><strong>Errors:</strong> 1</div>\n                      <div class=\"metric-line\"><strong>Answer changes:</strong> 0</div>\n                      <div class=\"metric-line\"><strong>Hesitation:</strong> No</div>\n                      <div class=\"metric-line\"><strong>Backtracking:</strong> No</div>\n                      <div class=\"metric-line\"><strong>Gaze samples:</strong> 0</div>\n                      <div class=\"metric-line\"><strong>On-target ratio:</strong> -</div>\n                      <div class=\"metric-line\"><strong>First fixation latency:</strong> -</div>\n                      <div class=\"metric-line\"><strong>Dwell time on target:</strong> 0.00 s</div>\n                    </div>\n                  </div>\n                </div>\n              </div>\n\n              <div class=\"score-box\">\n                <div><strong>Overall score: 1 / 2</strong></div>\n                <div style=\"margin-top:8px;\"><strong>Errors:</strong> 1</div>\n                <div style=\"margin-top:8px;\"><strong>WebGazer:</strong> Fallback mode</div>\n              </div>\n\n              <div class=\"summary-item\" style=\"margin-top:18px;\">\n                <span class=\"summary-label\">Heatmap debug / demo view</span>\n                <div class=\"heatmap-grid\">\n                  <div class=\"heatmap-card\">\n                    <div class=\"heatmap-title\">Task 1 reading region</div>\n                    <div id=\"task1-heatmap\" class=\"heatmap-box\"></div>\n                  </div>\n                  <div class=\"heatmap-card\">\n                    <div class=\"heatmap-title\">Task 2 information region</div>\n                    <div id=\"task2-heatmap\" class=\"heatmap-box\"></div>\n                  </div>\n                </div>\n              </div>\n            </div>\n          ",
      "response": 0,
      "phase": "end_screen",
      "trial_type": "html-button-response",
      "trial_index": 13,
      "time_elapsed": 130374,
      "internal_node_id": "0.0-7.0"
    }
  ],
  "gaze": {
    "webgazer_ready": false,
    "task1_reading": {
      "metrics": {
        "total_samples": 0,
        "in_target_samples": 0,
        "on_target_ratio": null,
        "first_fixation_latency_ms": null,
        "dwell_time_ms": 0,
        "region_width": null,
        "region_height": null,
        "points": []
      },
      "raw_samples": []
    },
    "task2_info": {
      "metrics": {
        "total_samples": 0,
        "in_target_samples": 0,
        "on_target_ratio": null,
        "first_fixation_latency_ms": null,
        "dwell_time_ms": 0,
        "region_width": null,
        "region_height": null,
        "points": []
      },
      "raw_samples": []
    }
  }
}