{
  "participant_id": "e6036a42-dcfe-4676-8006-a5ff8d3c3579",
  "session_id": "5da44ab0-51fe-42ac-a4d0-608ff3147ef7",
  "created_at": "2026-04-12T05:19:40.915Z",
  "baseline": {
    "age_group": "25-34",
    "digital_confidence": "Low",
    "page_style": "Simple page with fewer distractions",
    "guidance_need": "Often",
    "screen_distraction": "Easily",
    "dense_content_tolerance": "Uncomfortable",
    "content_format": "Visual summaries / infographics"
  },
  "tasks": {
    "task1": {
      "answer": "A book about user experience design",
      "correct": 1,
      "time_on_task_ms": 21018,
      "question_time_ms": 13507,
      "answer_changes": 0,
      "backtracking": 0,
      "hesitation": 1,
      "errors": 0
    },
    "task2": {
      "answer": "Room B204",
      "correct": 1,
      "time_on_task_ms": 9723,
      "question_time_ms": 3254,
      "answer_changes": 0,
      "backtracking": 0,
      "hesitation": 0,
      "errors": 0
    }
  },
  "raw_trials": [
    {
      "rt": 967,
      "stimulus": "\n          <div class=\"card\">\n            <div class=\"logo-wrap\">\n              <img src=\"jyu-logo.svg\" alt=\"University of Jyvaskyla logo\" onerror=\"this.style.display='none'\">\n            </div>\n            <h1>Welcome to the University of Jyväskylä</h1>\n            <p>Thank you for taking part in this short research demo.</p>\n            <p class=\"muted\">This prototype demonstrates baseline profiling, WebGazer-based attention capture, behavioural logging, and adaptive interface recommendation.</p>\n          </div>\n        ",
      "response": 0,
      "phase": "university_intro",
      "trial_type": "html-button-response",
      "trial_index": 0,
      "time_elapsed": 972,
      "internal_node_id": "0.0-0.0"
    },
    {
      "rt": 5457,
      "stimulus": "\n          <div class=\"card\">\n            <h2>Prototype Check</h2>\n            <p>This MVP runs in the browser and connects to a backend for saving data and generating an adaptive recommendation.</p>\n            <p class=\"muted\">The camera starts here. After that, a short calibration step is used before gaze-based reading analysis begins.</p>\n            <p id=\"webgazer-status\" class=\"small-note\">Initializing camera...</p>\n          </div>\n        ",
      "response": 0,
      "phase": "prototype_check",
      "trial_type": "html-button-response",
      "trial_index": 1,
      "time_elapsed": 6430,
      "internal_node_id": "0.0-1.0"
    },
    {
      "rt": 14300,
      "response": {
        "age_group": "25-34",
        "digital_confidence": "Low",
        "page_style": "Simple page with fewer distractions",
        "guidance_need": "Often",
        "screen_distraction": "Easily",
        "dense_content_tolerance": "Uncomfortable",
        "content_format": "Visual summaries / infographics"
      },
      "phase": "baseline",
      "trial_type": "survey-html-form",
      "trial_index": 2,
      "time_elapsed": 20731,
      "internal_node_id": "0.0-2.0"
    },
    {
      "rt": 13992,
      "stimulus": "\n          <div class=\"card\">\n            <h2>WebGazer Calibration</h2>\n            <p>Look directly at each dot and click it twice while keeping your gaze on it. This calibrates webcam-based gaze estimation so the system can generate clearer heatmaps and gaze statistics during the reading tasks.</p>\n\n            <div id=\"calibration-area\" class=\"calibration-area\">\n              <button type=\"button\" class=\"calibration-dot\" style=\"left: 10%; top: 12%;\" aria-label=\"Calibration point 1\"></button>\n              <button type=\"button\" class=\"calibration-dot\" style=\"left: 50%; top: 12%;\" aria-label=\"Calibration point 2\"></button>\n              <button type=\"button\" class=\"calibration-dot\" style=\"left: 90%; top: 12%;\" aria-label=\"Calibration point 3\"></button>\n\n              <button type=\"button\" class=\"calibration-dot\" style=\"left: 10%; top: 50%;\" aria-label=\"Calibration point 4\"></button>\n              <button type=\"button\" class=\"calibration-dot\" style=\"left: 50%; top: 50%;\" aria-label=\"Calibration point 5\"></button>\n              <button type=\"button\" class=\"calibration-dot\" style=\"left: 90%; top: 50%;\" aria-label=\"Calibration point 6\"></button>\n\n              <button type=\"button\" class=\"calibration-dot\" style=\"left: 10%; top: 88%;\" aria-label=\"Calibration point 7\"></button>\n              <button type=\"button\" class=\"calibration-dot\" style=\"left: 50%; top: 88%;\" aria-label=\"Calibration point 8\"></button>\n              <button type=\"button\" class=\"calibration-dot\" style=\"left: 90%; top: 88%;\" aria-label=\"Calibration point 9\"></button>\n            </div>\n\n            <p id=\"calibration-status\" class=\"small-note\">Calibration progress: 0 / 9</p>\n          </div>\n        ",
      "response": 0,
      "phase": "calibration",
      "trial_type": "html-button-response",
      "trial_index": 3,
      "time_elapsed": 34724,
      "internal_node_id": "0.0-3.0"
    },
    {
      "rt": 1393,
      "stimulus": "\n          <div class=\"card\">\n            <h2>Task 1</h2>\n            <p>Read the paragraph carefully, then answer one question.</p>\n          </div>\n        ",
      "response": 0,
      "phase": "task1_intro",
      "trial_type": "html-button-response",
      "trial_index": 4,
      "time_elapsed": 36117,
      "internal_node_id": "0.0-4.0"
    },
    {
      "rt": 6116,
      "stimulus": "\n    <div class=\"card\">\n      <h2>Reading Task</h2>\n      <div id=\"task1-text-region\" class=\"info-box\">Lina is a university student who usually studies in the library after her classes. On Monday, she arrived at the library at 3:00 PM, spent one hour reading a research article, then worked on an assignment for two more hours. Before leaving, she borrowed a book about user experience design.</div>\n      <p id=\"task1-gaze-note\" class=\"small-note\">Stabilizing gaze capture...</p>\n    </div>\n  ",
      "response": 0,
      "phase": "task1_reading",
      "trial_type": "html-button-response",
      "trial_index": 5,
      "time_elapsed": 42234,
      "internal_node_id": "0.0-5.0-0.0"
    },
    {
      "rt": 13507,
      "response": {
        "task1_answer": "A book about user experience design"
      },
      "question_order": [
        0
      ],
      "phase": "task1_question",
      "trial_type": "survey-multi-choice",
      "trial_index": 6,
      "time_elapsed": 55742,
      "internal_node_id": "0.0-5.0-1.0",
      "user_answer": "A book about user experience design",
      "correct_answer": "A book about user experience design",
      "correct": 1,
      "time_on_task_ms": 21018,
      "question_time_ms": 13507,
      "answer_changes": 0,
      "backtracking": 0,
      "hesitation": 1,
      "errors": 0
    },
    {
      "rt": 1210,
      "stimulus": "\n          <div class=\"card\">\n            <h2>Task 2</h2>\n            <p>Read the information card and answer one question based on it.</p>\n          </div>\n        ",
      "response": 0,
      "phase": "task2_intro",
      "trial_type": "html-button-response",
      "trial_index": 7,
      "time_elapsed": 56953,
      "internal_node_id": "0.0-6.0"
    },
    {
      "rt": 5257,
      "stimulus": "\n    <div class=\"card\">\n      <h2>Workshop Information</h2>\n      <div id=\"task2-info-region\" class=\"info-box\">\n          <strong>Title:</strong> Introduction to Human-Computer Interaction<br>\n          <strong>Date:</strong> Thursday, May 15<br>\n          <strong>Time:</strong> 10:00 AM - 12:00 PM<br>\n          <strong>Location:</strong> Room B204<br>\n          <strong>Instructor:</strong> Dr. Sami\n        </div>\n      <p id=\"task2-gaze-note\" class=\"small-note\">Stabilizing gaze capture...</p>\n    </div>\n  ",
      "response": 0,
      "phase": "task2_info",
      "trial_type": "html-button-response",
      "trial_index": 8,
      "time_elapsed": 62211,
      "internal_node_id": "0.0-7.0-0.0"
    },
    {
      "rt": 3253,
      "response": {
        "task2_answer": "Room B204"
      },
      "question_order": [
        0
      ],
      "phase": "task2_question",
      "trial_type": "survey-multi-choice",
      "trial_index": 9,
      "time_elapsed": 65465,
      "internal_node_id": "0.0-7.0-1.0",
      "user_answer": "Room B204",
      "correct_answer": "Room B204",
      "correct": 1,
      "time_on_task_ms": 9723,
      "question_time_ms": 3254,
      "answer_changes": 0,
      "backtracking": 0,
      "hesitation": 0,
      "errors": 0
    },
    {
      "rt": 6740,
      "stimulus": "\n            <div class=\"card\">\n              <h2>Experiment Completed</h2>\n              <p>This screen summarizes behavioural performance and gaze-derived indicators collected during the experiment.</p>\n\n              <div class=\"summary-grid\">\n                <div class=\"summary-item\">\n                  <span class=\"summary-label\">Task 1 result</span>\n                  <div class=\"summary-value\">\n                    <span class=\"status-pill status-correct\">Correct</span>\n                    <div class=\"metric-list\">\n                      <div class=\"metric-line\"><strong>Your answer:</strong> A book about user experience design</div>\n                      <div class=\"metric-line\"><strong>Correct answer:</strong> A book about user experience design</div>\n                      <div class=\"metric-line\"><strong>Time on task:</strong> 21.02 s</div>\n                      <div class=\"metric-line\"><strong>Question time:</strong> 13.51 s</div>\n                      <div class=\"metric-line\"><strong>Errors:</strong> 0</div>\n                      <div class=\"metric-line\"><strong>Answer changes:</strong> 0</div>\n                      <div class=\"metric-line\"><strong>Hesitation:</strong> Yes</div>\n                      <div class=\"metric-line\"><strong>Backtracking:</strong> No</div>\n                      \n                            <div class=\"metric-line\"><strong>Gaze samples:</strong> 238</div>\n                            <div class=\"metric-line\"><strong>On-target ratio:</strong> 0.08</div>\n                            <div class=\"metric-line\"><strong>First fixation latency:</strong> 1.26 s</div>\n                            <div class=\"metric-line\"><strong>Dwell time on target:</strong> 0.95 s</div>\n                          \n                    </div>\n                  </div>\n                </div>\n\n                <div class=\"summary-item\">\n                  <span class=\"summary-label\">Task 2 result</span>\n                  <div class=\"summary-value\">\n                    <span class=\"status-pill status-correct\">Correct</span>\n                    <div class=\"metric-list\">\n                      <div class=\"metric-line\"><strong>Your answer:</strong> Room B204</div>\n                      <div class=\"metric-line\"><strong>Correct answer:</strong> Room B204</div>\n                      <div class=\"metric-line\"><strong>Time on task:</strong> 9.72 s</div>\n                      <div class=\"metric-line\"><strong>Question time:</strong> 3.25 s</div>\n                      <div class=\"metric-line\"><strong>Errors:</strong> 0</div>\n                      <div class=\"metric-line\"><strong>Answer changes:</strong> 0</div>\n                      <div class=\"metric-line\"><strong>Hesitation:</strong> No</div>\n                      <div class=\"metric-line\"><strong>Backtracking:</strong> No</div>\n                      \n                            <div class=\"metric-line\"><strong>Gaze samples:</strong> 202</div>\n                            <div class=\"metric-line\"><strong>On-target ratio:</strong> 0.36</div>\n                            <div class=\"metric-line\"><strong>First fixation latency:</strong> 0.04 s</div>\n                            <div class=\"metric-line\"><strong>Dwell time on target:</strong> 3.65 s</div>\n                          \n                    </div>\n                  </div>\n                </div>\n              </div>\n\n              <div class=\"score-box\">\n                <div><strong>Overall score: 2 / 2</strong></div>\n                <div style=\"margin-top:8px;\"><strong>Errors:</strong> 0</div>\n                <div style=\"margin-top:8px;\"><strong>WebGazer:</strong> Enabled</div>\n              </div>\n            </div>\n          ",
      "response": 0,
      "phase": "end_screen",
      "trial_type": "html-button-response",
      "trial_index": 10,
      "time_elapsed": 72205,
      "internal_node_id": "0.0-8.0"
    }
  ],
  "gaze": {
    "webgazer_ready": true,
    "task1_reading": {
      "metrics": {
        "total_samples": 238,
        "in_target_samples": 19,
        "on_target_ratio": 0.08,
        "first_fixation_latency_ms": 1261,
        "dwell_time_ms": 950,
        "region_width": 606,
        "region_height": 282,
        "points": [
          {
            "rel_x": 0.5585,
            "rel_y": 0.9535
          },
          {
            "rel_x": 0.5736,
            "rel_y": 0.9749
          },
          {
            "rel_x": 0.4171,
            "rel_y": 0.998
          },
          {
            "rel_x": 0.4105,
            "rel_y": 0.9624
          },
          {
            "rel_x": 0.403,
            "rel_y": 0.9725
          },
          {
            "rel_x": 0.3658,
            "rel_y": 0.9642
          },
          {
            "rel_x": 0.3517,
            "rel_y": 0.9749
          },
          {
            "rel_x": 0.4368,
            "rel_y": 0.9766
          },
          {
            "rel_x": 0.0539,
            "rel_y": 0.998
          },
          {
            "rel_x": 0.0188,
            "rel_y": 0.9044
          },
          {
            "rel_x": 0.008,
            "rel_y": 0.84
          },
          {
            "rel_x": 0.0039,
            "rel_y": 0.7894
          },
          {
            "rel_x": 0.0044,
            "rel_y": 0.6883
          },
          {
            "rel_x": 0.0195,
            "rel_y": 0.6864
          },
          {
            "rel_x": 0.0321,
            "rel_y": 0.6765
          },
          {
            "rel_x": 0.0611,
            "rel_y": 0.6852
          },
          {
            "rel_x": 0.0866,
            "rel_y": 0.6954
          },
          {
            "rel_x": 0.0914,
            "rel_y": 0.7008
          },
          {
            "rel_x": 0.0974,
            "rel_y": 0.7341
          }
        ]
      },
      "raw_samples": [
        {
          "x": 721.41,
          "y": 544.71,
          "rel_x": 0.3043,
          "rel_y": 1.2844,
          "inside_target": false,
          "offset_ms": 23,
          "recorded_at": 1775971145490
        },
        {
          "x": 723.11,
          "y": 548.78,
          "rel_x": 0.3071,
          "rel_y": 1.2989,
          "inside_target": false,
          "offset_ms": 49,
          "recorded_at": 1775971145517
        },
        {
          "x": 705.01,
          "y": 545.6,
          "rel_x": 0.2772,
          "rel_y": 1.2876,
          "inside_target": false,
          "offset_ms": 73,
          "recorded_at": 1775971145540
        },
        {
          "x": 693.75,
          "y": 544.17,
          "rel_x": 0.2587,
          "rel_y": 1.2825,
          "inside_target": false,
          "offset_ms": 96,
          "recorded_at": 1775971145564
        },
        {
          "x": 695.81,
          "y": 552.79,
          "rel_x": 0.2621,
          "rel_y": 1.3131,
          "inside_target": false,
          "offset_ms": 125,
          "recorded_at": 1775971145592
        },
        {
          "x": 685.45,
          "y": 569.8,
          "rel_x": 0.245,
          "rel_y": 1.3734,
          "inside_target": false,
          "offset_ms": 147,
          "recorded_at": 1775971145614
        },
        {
          "x": 689.99,
          "y": 563.79,
          "rel_x": 0.2525,
          "rel_y": 1.3521,
          "inside_target": false,
          "offset_ms": 174,
          "recorded_at": 1775971145641
        },
        {
          "x": 700.97,
          "y": 551.87,
          "rel_x": 0.2706,
          "rel_y": 1.3098,
          "inside_target": false,
          "offset_ms": 197,
          "recorded_at": 1775971145665
        },
        {
          "x": 718,
          "y": 545.36,
          "rel_x": 0.2987,
          "rel_y": 1.2867,
          "inside_target": false,
          "offset_ms": 224,
          "recorded_at": 1775971145692
        },
        {
          "x": 728.65,
          "y": 534.58,
          "rel_x": 0.3163,
          "rel_y": 1.2485,
          "inside_target": false,
          "offset_ms": 247,
          "recorded_at": 1775971145714
        },
        {
          "x": 726.99,
          "y": 520.83,
          "rel_x": 0.3135,
          "rel_y": 1.1998,
          "inside_target": false,
          "offset_ms": 271,
          "recorded_at": 1775971145738
        },
        {
          "x": 751.31,
          "y": 511.85,
          "rel_x": 0.3536,
          "rel_y": 1.1679,
          "inside_target": false,
          "offset_ms": 300,
          "recorded_at": 1775971145767
        },
        {
          "x": 767.42,
          "y": 541.93,
          "rel_x": 0.3802,
          "rel_y": 1.2746,
          "inside_target": false,
          "offset_ms": 323,
          "recorded_at": 1775971145791
        },
        {
          "x": 780.61,
          "y": 567.91,
          "rel_x": 0.402,
          "rel_y": 1.3667,
          "inside_target": false,
          "offset_ms": 345,
          "recorded_at": 1775971145813
        },
        {
          "x": 812.05,
          "y": 560.51,
          "rel_x": 0.4539,
          "rel_y": 1.3405,
          "inside_target": false,
          "offset_ms": 368,
          "recorded_at": 1775971145836
        },
        {
          "x": 846.59,
          "y": 543.7,
          "rel_x": 0.5109,
          "rel_y": 1.2809,
          "inside_target": false,
          "offset_ms": 391,
          "recorded_at": 1775971145859
        },
        {
          "x": 865.04,
          "y": 527.99,
          "rel_x": 0.5413,
          "rel_y": 1.2252,
          "inside_target": false,
          "offset_ms": 414,
          "recorded_at": 1775971145882
        },
        {
          "x": 872.03,
          "y": 550.99,
          "rel_x": 0.5529,
          "rel_y": 1.3067,
          "inside_target": false,
          "offset_ms": 438,
          "recorded_at": 1775971145906
        },
        {
          "x": 890.15,
          "y": 569.74,
          "rel_x": 0.5828,
          "rel_y": 1.3732,
          "inside_target": false,
          "offset_ms": 463,
          "recorded_at": 1775971145930
        },
        {
          "x": 899.81,
          "y": 578.69,
          "rel_x": 0.5987,
          "rel_y": 1.4049,
          "inside_target": false,
          "offset_ms": 486,
          "recorded_at": 1775971145954
        },
        {
          "x": 906.39,
          "y": 585.83,
          "rel_x": 0.6096,
          "rel_y": 1.4302,
          "inside_target": false,
          "offset_ms": 508,
          "recorded_at": 1775971145975
        },
        {
          "x": 919.34,
          "y": 600.76,
          "rel_x": 0.6309,
          "rel_y": 1.4832,
          "inside_target": false,
          "offset_ms": 532,
          "recorded_at": 1775971145999
        },
        {
          "x": 907.73,
          "y": 616.79,
          "rel_x": 0.6118,
          "rel_y": 1.54,
          "inside_target": false,
          "offset_ms": 555,
          "recorded_at": 1775971146023
        },
        {
          "x": 913.44,
          "y": 610.03,
          "rel_x": 0.6212,
          "rel_y": 1.5161,
          "inside_target": false,
          "offset_ms": 577,
          "recorded_at": 1775971146045
        },
        {
          "x": 899.75,
          "y": 633.22,
          "rel_x": 0.5986,
          "rel_y": 1.5983,
          "inside_target": false,
          "offset_ms": 603,
          "recorded_at": 1775971146070
        },
        {
          "x": 886.9,
          "y": 621.12,
          "rel_x": 0.5774,
          "rel_y": 1.5554,
          "inside_target": false,
          "offset_ms": 629,
          "recorded_at": 1775971146096
        },
        {
          "x": 888.48,
          "y": 618,
          "rel_x": 0.58,
          "rel_y": 1.5443,
          "inside_target": false,
          "offset_ms": 651,
          "recorded_at": 1775971146119
        },
        {
          "x": 869.13,
          "y": 626.52,
          "rel_x": 0.5481,
          "rel_y": 1.5746,
          "inside_target": false,
          "offset_ms": 673,
          "recorded_at": 1775971146141
        },
        {
          "x": 851.63,
          "y": 622.84,
          "rel_x": 0.5192,
          "rel_y": 1.5615,
          "inside_target": false,
          "offset_ms": 697,
          "recorded_at": 1775971146164
        },
        {
          "x": 840.8,
          "y": 616.04,
          "rel_x": 0.5013,
          "rel_y": 1.5374,
          "inside_target": false,
          "offset_ms": 719,
          "recorded_at": 1775971146187
        },
        {
          "x": 831.97,
          "y": 609.86,
          "rel_x": 0.4868,
          "rel_y": 1.5155,
          "inside_target": false,
          "offset_ms": 741,
          "recorded_at": 1775971146209
        },
        {
          "x": 828.13,
          "y": 609.89,
          "rel_x": 0.4804,
          "rel_y": 1.5156,
          "inside_target": false,
          "offset_ms": 764,
          "recorded_at": 1775971146232
        },
        {
          "x": 851.87,
          "y": 611.15,
          "rel_x": 0.5196,
          "rel_y": 1.52,
          "inside_target": false,
          "offset_ms": 787,
          "recorded_at": 1775971146255
        },
        {
          "x": 848.54,
          "y": 624.45,
          "rel_x": 0.5141,
          "rel_y": 1.5672,
          "inside_target": false,
          "offset_ms": 809,
          "recorded_at": 1775971146276
        },
        {
          "x": 840.55,
          "y": 646.41,
          "rel_x": 0.5009,
          "rel_y": 1.6451,
          "inside_target": false,
          "offset_ms": 832,
          "recorded_at": 1775971146300
        },
        {
          "x": 822.88,
          "y": 657.2,
          "rel_x": 0.4717,
          "rel_y": 1.6833,
          "inside_target": false,
          "offset_ms": 855,
          "recorded_at": 1775971146323
        },
        {
          "x": 811.5,
          "y": 657.11,
          "rel_x": 0.453,
          "rel_y": 1.683,
          "inside_target": false,
          "offset_ms": 878,
          "recorded_at": 1775971146346
        },
        {
          "x": 818.29,
          "y": 618.64,
          "rel_x": 0.4642,
          "rel_y": 1.5466,
          "inside_target": false,
          "offset_ms": 901,
          "recorded_at": 1775971146368
        },
        {
          "x": 831.74,
          "y": 606.8,
          "rel_x": 0.4864,
          "rel_y": 1.5046,
          "inside_target": false,
          "offset_ms": 923,
          "recorded_at": 1775971146391
        },
        {
          "x": 843.59,
          "y": 596.88,
          "rel_x": 0.5059,
          "rel_y": 1.4694,
          "inside_target": false,
          "offset_ms": 945,
          "recorded_at": 1775971146413
        },
        {
          "x": 846.19,
          "y": 585.36,
          "rel_x": 0.5102,
          "rel_y": 1.4286,
          "inside_target": false,
          "offset_ms": 968,
          "recorded_at": 1775971146435
        },
        {
          "x": 846.99,
          "y": 565.81,
          "rel_x": 0.5115,
          "rel_y": 1.3592,
          "inside_target": false,
          "offset_ms": 991,
          "recorded_at": 1775971146458
        },
        {
          "x": 847.54,
          "y": 549.75,
          "rel_x": 0.5124,
          "rel_y": 1.3023,
          "inside_target": false,
          "offset_ms": 1013,
          "recorded_at": 1775971146481
        },
        {
          "x": 847.63,
          "y": 535.35,
          "rel_x": 0.5126,
          "rel_y": 1.2512,
          "inside_target": false,
          "offset_ms": 1036,
          "recorded_at": 1775971146504
        },
        {
          "x": 848.63,
          "y": 515.17,
          "rel_x": 0.5142,
          "rel_y": 1.1797,
          "inside_target": false,
          "offset_ms": 1059,
          "recorded_at": 1775971146526
        },
        {
          "x": 849.39,
          "y": 499.07,
          "rel_x": 0.5155,
          "rel_y": 1.1226,
          "inside_target": false,
          "offset_ms": 1081,
          "recorded_at": 1775971146548
        },
        {
          "x": 838.94,
          "y": 505.21,
          "rel_x": 0.4982,
          "rel_y": 1.1444,
          "inside_target": false,
          "offset_ms": 1104,
          "recorded_at": 1775971146571
        },
        {
          "x": 835.98,
          "y": 472.76,
          "rel_x": 0.4934,
          "rel_y": 1.0293,
          "inside_target": false,
          "offset_ms": 1127,
          "recorded_at": 1775971146594
        },
        {
          "x": 863.13,
          "y": 514.25,
          "rel_x": 0.5382,
          "rel_y": 1.1764,
          "inside_target": false,
          "offset_ms": 1149,
          "recorded_at": 1775971146617
        },
        {
          "x": 853.37,
          "y": 497.54,
          "rel_x": 0.5221,
          "rel_y": 1.1172,
          "inside_target": false,
          "offset_ms": 1171,
          "recorded_at": 1775971146639
        },
        {
          "x": 863.03,
          "y": 474.94,
          "rel_x": 0.538,
          "rel_y": 1.037,
          "inside_target": false,
          "offset_ms": 1195,
          "recorded_at": 1775971146663
        },
        {
          "x": 872.96,
          "y": 471.61,
          "rel_x": 0.5544,
          "rel_y": 1.0252,
          "inside_target": false,
          "offset_ms": 1217,
          "recorded_at": 1775971146685
        },
        {
          "x": 870.12,
          "y": 468.97,
          "rel_x": 0.5497,
          "rel_y": 1.0159,
          "inside_target": false,
          "offset_ms": 1238,
          "recorded_at": 1775971146706
        },
        {
          "x": 875.42,
          "y": 451.4,
          "rel_x": 0.5585,
          "rel_y": 0.9535,
          "inside_target": true,
          "offset_ms": 1261,
          "recorded_at": 1775971146728
        },
        {
          "x": 884.61,
          "y": 457.41,
          "rel_x": 0.5736,
          "rel_y": 0.9749,
          "inside_target": true,
          "offset_ms": 1282,
          "recorded_at": 1775971146750
        },
        {
          "x": 896.53,
          "y": 475.28,
          "rel_x": 0.5933,
          "rel_y": 1.0382,
          "inside_target": false,
          "offset_ms": 1304,
          "recorded_at": 1775971146772
        },
        {
          "x": 910.41,
          "y": 476.79,
          "rel_x": 0.6162,
          "rel_y": 1.0436,
          "inside_target": false,
          "offset_ms": 1329,
          "recorded_at": 1775971146797
        },
        {
          "x": 917.45,
          "y": 483.37,
          "rel_x": 0.6278,
          "rel_y": 1.0669,
          "inside_target": false,
          "offset_ms": 1351,
          "recorded_at": 1775971146818
        },
        {
          "x": 892.6,
          "y": 490.51,
          "rel_x": 0.5868,
          "rel_y": 1.0922,
          "inside_target": false,
          "offset_ms": 1377,
          "recorded_at": 1775971146844
        },
        {
          "x": 864.99,
          "y": 503.22,
          "rel_x": 0.5412,
          "rel_y": 1.1373,
          "inside_target": false,
          "offset_ms": 1401,
          "recorded_at": 1775971146868
        },
        {
          "x": 844.98,
          "y": 518.95,
          "rel_x": 0.5082,
          "rel_y": 1.1931,
          "inside_target": false,
          "offset_ms": 1423,
          "recorded_at": 1775971146890
        },
        {
          "x": 828.79,
          "y": 548.3,
          "rel_x": 0.4815,
          "rel_y": 1.2972,
          "inside_target": false,
          "offset_ms": 1446,
          "recorded_at": 1775971146914
        },
        {
          "x": 808.55,
          "y": 553.66,
          "rel_x": 0.4481,
          "rel_y": 1.3162,
          "inside_target": false,
          "offset_ms": 1467,
          "recorded_at": 1775971146935
        },
        {
          "x": 813.58,
          "y": 560.46,
          "rel_x": 0.4564,
          "rel_y": 1.3403,
          "inside_target": false,
          "offset_ms": 1489,
          "recorded_at": 1775971146957
        },
        {
          "x": 825.92,
          "y": 568,
          "rel_x": 0.4768,
          "rel_y": 1.367,
          "inside_target": false,
          "offset_ms": 1512,
          "recorded_at": 1775971146979
        },
        {
          "x": 830.64,
          "y": 533.52,
          "rel_x": 0.4845,
          "rel_y": 1.2447,
          "inside_target": false,
          "offset_ms": 1535,
          "recorded_at": 1775971147002
        },
        {
          "x": 823.04,
          "y": 549.69,
          "rel_x": 0.472,
          "rel_y": 1.3021,
          "inside_target": false,
          "offset_ms": 1556,
          "recorded_at": 1775971147023
        },
        {
          "x": 816.62,
          "y": 527.45,
          "rel_x": 0.4614,
          "rel_y": 1.2232,
          "inside_target": false,
          "offset_ms": 1578,
          "recorded_at": 1775971147045
        },
        {
          "x": 813.36,
          "y": 527.53,
          "rel_x": 0.456,
          "rel_y": 1.2235,
          "inside_target": false,
          "offset_ms": 1600,
          "recorded_at": 1775971147068
        },
        {
          "x": 804.22,
          "y": 529.74,
          "rel_x": 0.441,
          "rel_y": 1.2313,
          "inside_target": false,
          "offset_ms": 1622,
          "recorded_at": 1775971147090
        },
        {
          "x": 782.21,
          "y": 552.33,
          "rel_x": 0.4046,
          "rel_y": 1.3115,
          "inside_target": false,
          "offset_ms": 1644,
          "recorded_at": 1775971147112
        },
        {
          "x": 762.71,
          "y": 577.56,
          "rel_x": 0.3725,
          "rel_y": 1.4009,
          "inside_target": false,
          "offset_ms": 1666,
          "recorded_at": 1775971147134
        },
        {
          "x": 775.46,
          "y": 597.05,
          "rel_x": 0.3935,
          "rel_y": 1.47,
          "inside_target": false,
          "offset_ms": 1688,
          "recorded_at": 1775971147156
        },
        {
          "x": 794.38,
          "y": 611.03,
          "rel_x": 0.4247,
          "rel_y": 1.5196,
          "inside_target": false,
          "offset_ms": 1711,
          "recorded_at": 1775971147179
        },
        {
          "x": 795.4,
          "y": 614.35,
          "rel_x": 0.4264,
          "rel_y": 1.5314,
          "inside_target": false,
          "offset_ms": 1737,
          "recorded_at": 1775971147204
        },
        {
          "x": 788.64,
          "y": 609.31,
          "rel_x": 0.4153,
          "rel_y": 1.5135,
          "inside_target": false,
          "offset_ms": 1760,
          "recorded_at": 1775971147228
        },
        {
          "x": 743.55,
          "y": 627.89,
          "rel_x": 0.3408,
          "rel_y": 1.5794,
          "inside_target": false,
          "offset_ms": 1783,
          "recorded_at": 1775971147251
        },
        {
          "x": 748.15,
          "y": 642.44,
          "rel_x": 0.3484,
          "rel_y": 1.631,
          "inside_target": false,
          "offset_ms": 1804,
          "recorded_at": 1775971147272
        },
        {
          "x": 716.4,
          "y": 647.85,
          "rel_x": 0.296,
          "rel_y": 1.6502,
          "inside_target": false,
          "offset_ms": 1828,
          "recorded_at": 1775971147295
        },
        {
          "x": 705.35,
          "y": 657.44,
          "rel_x": 0.2778,
          "rel_y": 1.6842,
          "inside_target": false,
          "offset_ms": 1850,
          "recorded_at": 1775971147318
        },
        {
          "x": 697.14,
          "y": 664.62,
          "rel_x": 0.2643,
          "rel_y": 1.7096,
          "inside_target": false,
          "offset_ms": 1872,
          "recorded_at": 1775971147339
        },
        {
          "x": 683.24,
          "y": 660.31,
          "rel_x": 0.2413,
          "rel_y": 1.6944,
          "inside_target": false,
          "offset_ms": 1894,
          "recorded_at": 1775971147361
        },
        {
          "x": 685.65,
          "y": 612.77,
          "rel_x": 0.2453,
          "rel_y": 1.5258,
          "inside_target": false,
          "offset_ms": 1917,
          "recorded_at": 1775971147384
        },
        {
          "x": 684.99,
          "y": 587.32,
          "rel_x": 0.2442,
          "rel_y": 1.4355,
          "inside_target": false,
          "offset_ms": 1938,
          "recorded_at": 1775971147406
        },
        {
          "x": 685.94,
          "y": 550.69,
          "rel_x": 0.2458,
          "rel_y": 1.3056,
          "inside_target": false,
          "offset_ms": 1962,
          "recorded_at": 1775971147429
        },
        {
          "x": 687.85,
          "y": 560.43,
          "rel_x": 0.2489,
          "rel_y": 1.3402,
          "inside_target": false,
          "offset_ms": 1986,
          "recorded_at": 1775971147453
        },
        {
          "x": 690.18,
          "y": 569.82,
          "rel_x": 0.2528,
          "rel_y": 1.3735,
          "inside_target": false,
          "offset_ms": 2008,
          "recorded_at": 1775971147476
        },
        {
          "x": 696.65,
          "y": 544.57,
          "rel_x": 0.2635,
          "rel_y": 1.2839,
          "inside_target": false,
          "offset_ms": 2030,
          "recorded_at": 1775971147497
        },
        {
          "x": 722.49,
          "y": 543.49,
          "rel_x": 0.3061,
          "rel_y": 1.2801,
          "inside_target": false,
          "offset_ms": 2053,
          "recorded_at": 1775971147520
        },
        {
          "x": 744.71,
          "y": 543.43,
          "rel_x": 0.3428,
          "rel_y": 1.2799,
          "inside_target": false,
          "offset_ms": 2075,
          "recorded_at": 1775971147543
        },
        {
          "x": 759.46,
          "y": 551.45,
          "rel_x": 0.3671,
          "rel_y": 1.3083,
          "inside_target": false,
          "offset_ms": 2098,
          "recorded_at": 1775971147566
        },
        {
          "x": 775.89,
          "y": 563.08,
          "rel_x": 0.3942,
          "rel_y": 1.3496,
          "inside_target": false,
          "offset_ms": 2120,
          "recorded_at": 1775971147588
        },
        {
          "x": 785.47,
          "y": 579.13,
          "rel_x": 0.41,
          "rel_y": 1.4065,
          "inside_target": false,
          "offset_ms": 2142,
          "recorded_at": 1775971147609
        },
        {
          "x": 792.72,
          "y": 591.87,
          "rel_x": 0.422,
          "rel_y": 1.4517,
          "inside_target": false,
          "offset_ms": 2165,
          "recorded_at": 1775971147632
        },
        {
          "x": 791.17,
          "y": 586.58,
          "rel_x": 0.4194,
          "rel_y": 1.4329,
          "inside_target": false,
          "offset_ms": 2187,
          "recorded_at": 1775971147654
        },
        {
          "x": 789.46,
          "y": 602.68,
          "rel_x": 0.4166,
          "rel_y": 1.49,
          "inside_target": false,
          "offset_ms": 2209,
          "recorded_at": 1775971147677
        },
        {
          "x": 798.27,
          "y": 602.3,
          "rel_x": 0.4311,
          "rel_y": 1.4886,
          "inside_target": false,
          "offset_ms": 2233,
          "recorded_at": 1775971147701
        },
        {
          "x": 792.59,
          "y": 615.92,
          "rel_x": 0.4218,
          "rel_y": 1.5369,
          "inside_target": false,
          "offset_ms": 2256,
          "recorded_at": 1775971147723
        },
        {
          "x": 786.58,
          "y": 628.44,
          "rel_x": 0.4119,
          "rel_y": 1.5813,
          "inside_target": false,
          "offset_ms": 2277,
          "recorded_at": 1775971147745
        },
        {
          "x": 790.7,
          "y": 637.75,
          "rel_x": 0.4186,
          "rel_y": 1.6143,
          "inside_target": false,
          "offset_ms": 2301,
          "recorded_at": 1775971147768
        },
        {
          "x": 787.11,
          "y": 639.75,
          "rel_x": 0.4127,
          "rel_y": 1.6215,
          "inside_target": false,
          "offset_ms": 2324,
          "recorded_at": 1775971147791
        },
        {
          "x": 787.4,
          "y": 643.08,
          "rel_x": 0.4132,
          "rel_y": 1.6333,
          "inside_target": false,
          "offset_ms": 2346,
          "recorded_at": 1775971147813
        },
        {
          "x": 776.19,
          "y": 633.22,
          "rel_x": 0.3947,
          "rel_y": 1.5983,
          "inside_target": false,
          "offset_ms": 2368,
          "recorded_at": 1775971147836
        },
        {
          "x": 769.35,
          "y": 626.32,
          "rel_x": 0.3834,
          "rel_y": 1.5738,
          "inside_target": false,
          "offset_ms": 2391,
          "recorded_at": 1775971147858
        },
        {
          "x": 757.3,
          "y": 617.49,
          "rel_x": 0.3635,
          "rel_y": 1.5425,
          "inside_target": false,
          "offset_ms": 2412,
          "recorded_at": 1775971147880
        },
        {
          "x": 744.58,
          "y": 616.87,
          "rel_x": 0.3425,
          "rel_y": 1.5403,
          "inside_target": false,
          "offset_ms": 2435,
          "recorded_at": 1775971147903
        },
        {
          "x": 760.8,
          "y": 641.98,
          "rel_x": 0.3693,
          "rel_y": 1.6294,
          "inside_target": false,
          "offset_ms": 2459,
          "recorded_at": 1775971147926
        },
        {
          "x": 775.07,
          "y": 663.34,
          "rel_x": 0.3929,
          "rel_y": 1.7051,
          "inside_target": false,
          "offset_ms": 2482,
          "recorded_at": 1775971147949
        },
        {
          "x": 755.95,
          "y": 642.34,
          "rel_x": 0.3613,
          "rel_y": 1.6306,
          "inside_target": false,
          "offset_ms": 2504,
          "recorded_at": 1775971147972
        },
        {
          "x": 762.86,
          "y": 667.74,
          "rel_x": 0.3727,
          "rel_y": 1.7207,
          "inside_target": false,
          "offset_ms": 2527,
          "recorded_at": 1775971147994
        },
        {
          "x": 789.38,
          "y": 658.19,
          "rel_x": 0.4165,
          "rel_y": 1.6869,
          "inside_target": false,
          "offset_ms": 2550,
          "recorded_at": 1775971148017
        },
        {
          "x": 812,
          "y": 649.44,
          "rel_x": 0.4538,
          "rel_y": 1.6558,
          "inside_target": false,
          "offset_ms": 2572,
          "recorded_at": 1775971148040
        },
        {
          "x": 819.84,
          "y": 642.65,
          "rel_x": 0.4667,
          "rel_y": 1.6317,
          "inside_target": false,
          "offset_ms": 2595,
          "recorded_at": 1775971148063
        },
        {
          "x": 829.46,
          "y": 646.65,
          "rel_x": 0.4826,
          "rel_y": 1.6459,
          "inside_target": false,
          "offset_ms": 2618,
          "recorded_at": 1775971148085
        },
        {
          "x": 836.9,
          "y": 650.01,
          "rel_x": 0.4949,
          "rel_y": 1.6579,
          "inside_target": false,
          "offset_ms": 2639,
          "recorded_at": 1775971148106
        },
        {
          "x": 837.46,
          "y": 647.54,
          "rel_x": 0.4958,
          "rel_y": 1.6491,
          "inside_target": false,
          "offset_ms": 2662,
          "recorded_at": 1775971148129
        },
        {
          "x": 842.64,
          "y": 660.74,
          "rel_x": 0.5044,
          "rel_y": 1.6959,
          "inside_target": false,
          "offset_ms": 2685,
          "recorded_at": 1775971148152
        },
        {
          "x": 842.44,
          "y": 665.86,
          "rel_x": 0.504,
          "rel_y": 1.714,
          "inside_target": false,
          "offset_ms": 2706,
          "recorded_at": 1775971148174
        },
        {
          "x": 835.05,
          "y": 652.91,
          "rel_x": 0.4918,
          "rel_y": 1.6681,
          "inside_target": false,
          "offset_ms": 2728,
          "recorded_at": 1775971148196
        },
        {
          "x": 836.06,
          "y": 648.64,
          "rel_x": 0.4935,
          "rel_y": 1.653,
          "inside_target": false,
          "offset_ms": 2752,
          "recorded_at": 1775971148219
        },
        {
          "x": 836.57,
          "y": 644.94,
          "rel_x": 0.4943,
          "rel_y": 1.6399,
          "inside_target": false,
          "offset_ms": 2772,
          "recorded_at": 1775971148240
        },
        {
          "x": 831.18,
          "y": 631.35,
          "rel_x": 0.4854,
          "rel_y": 1.5917,
          "inside_target": false,
          "offset_ms": 2794,
          "recorded_at": 1775971148262
        },
        {
          "x": 829.21,
          "y": 613.07,
          "rel_x": 0.4822,
          "rel_y": 1.5268,
          "inside_target": false,
          "offset_ms": 2816,
          "recorded_at": 1775971148284
        },
        {
          "x": 827.38,
          "y": 597.83,
          "rel_x": 0.4792,
          "rel_y": 1.4728,
          "inside_target": false,
          "offset_ms": 2838,
          "recorded_at": 1775971148305
        },
        {
          "x": 827.84,
          "y": 585.43,
          "rel_x": 0.4799,
          "rel_y": 1.4288,
          "inside_target": false,
          "offset_ms": 2861,
          "recorded_at": 1775971148329
        },
        {
          "x": 828.71,
          "y": 576.94,
          "rel_x": 0.4814,
          "rel_y": 1.3987,
          "inside_target": false,
          "offset_ms": 2883,
          "recorded_at": 1775971148351
        },
        {
          "x": 829.4,
          "y": 570.55,
          "rel_x": 0.4825,
          "rel_y": 1.3761,
          "inside_target": false,
          "offset_ms": 2905,
          "recorded_at": 1775971148373
        },
        {
          "x": 827.57,
          "y": 570.68,
          "rel_x": 0.4795,
          "rel_y": 1.3765,
          "inside_target": false,
          "offset_ms": 2928,
          "recorded_at": 1775971148396
        },
        {
          "x": 835.65,
          "y": 561.94,
          "rel_x": 0.4928,
          "rel_y": 1.3455,
          "inside_target": false,
          "offset_ms": 2952,
          "recorded_at": 1775971148419
        },
        {
          "x": 842.5,
          "y": 555.21,
          "rel_x": 0.5041,
          "rel_y": 1.3217,
          "inside_target": false,
          "offset_ms": 2973,
          "recorded_at": 1775971148440
        },
        {
          "x": 849.22,
          "y": 557.3,
          "rel_x": 0.5152,
          "rel_y": 1.3291,
          "inside_target": false,
          "offset_ms": 2997,
          "recorded_at": 1775971148464
        },
        {
          "x": 856,
          "y": 548.31,
          "rel_x": 0.5264,
          "rel_y": 1.2972,
          "inside_target": false,
          "offset_ms": 3019,
          "recorded_at": 1775971148487
        },
        {
          "x": 861.43,
          "y": 541.26,
          "rel_x": 0.5354,
          "rel_y": 1.2722,
          "inside_target": false,
          "offset_ms": 3040,
          "recorded_at": 1775971148507
        },
        {
          "x": 868.29,
          "y": 555.56,
          "rel_x": 0.5467,
          "rel_y": 1.3229,
          "inside_target": false,
          "offset_ms": 3062,
          "recorded_at": 1775971148530
        },
        {
          "x": 865.84,
          "y": 571.01,
          "rel_x": 0.5426,
          "rel_y": 1.3777,
          "inside_target": false,
          "offset_ms": 3085,
          "recorded_at": 1775971148552
        },
        {
          "x": 863.29,
          "y": 584.47,
          "rel_x": 0.5384,
          "rel_y": 1.4254,
          "inside_target": false,
          "offset_ms": 3106,
          "recorded_at": 1775971148573
        },
        {
          "x": 865.99,
          "y": 578.14,
          "rel_x": 0.5429,
          "rel_y": 1.403,
          "inside_target": false,
          "offset_ms": 3130,
          "recorded_at": 1775971148597
        },
        {
          "x": 844.99,
          "y": 584.07,
          "rel_x": 0.5082,
          "rel_y": 1.424,
          "inside_target": false,
          "offset_ms": 3152,
          "recorded_at": 1775971148619
        },
        {
          "x": 836.56,
          "y": 572.29,
          "rel_x": 0.4943,
          "rel_y": 1.3822,
          "inside_target": false,
          "offset_ms": 3173,
          "recorded_at": 1775971148641
        },
        {
          "x": 831.61,
          "y": 545.1,
          "rel_x": 0.4862,
          "rel_y": 1.2858,
          "inside_target": false,
          "offset_ms": 3195,
          "recorded_at": 1775971148663
        },
        {
          "x": 821.9,
          "y": 541.15,
          "rel_x": 0.4701,
          "rel_y": 1.2718,
          "inside_target": false,
          "offset_ms": 3218,
          "recorded_at": 1775971148685
        },
        {
          "x": 813.94,
          "y": 538.32,
          "rel_x": 0.457,
          "rel_y": 1.2618,
          "inside_target": false,
          "offset_ms": 3239,
          "recorded_at": 1775971148706
        },
        {
          "x": 809.95,
          "y": 520.96,
          "rel_x": 0.4504,
          "rel_y": 1.2002,
          "inside_target": false,
          "offset_ms": 3262,
          "recorded_at": 1775971148729
        },
        {
          "x": 797.62,
          "y": 498.05,
          "rel_x": 0.4301,
          "rel_y": 1.119,
          "inside_target": false,
          "offset_ms": 3285,
          "recorded_at": 1775971148753
        },
        {
          "x": 787.62,
          "y": 479.27,
          "rel_x": 0.4136,
          "rel_y": 1.0524,
          "inside_target": false,
          "offset_ms": 3308,
          "recorded_at": 1775971148775
        },
        {
          "x": 781.57,
          "y": 483.92,
          "rel_x": 0.4036,
          "rel_y": 1.0688,
          "inside_target": false,
          "offset_ms": 3330,
          "recorded_at": 1775971148797
        },
        {
          "x": 791.26,
          "y": 476.19,
          "rel_x": 0.4196,
          "rel_y": 1.0414,
          "inside_target": false,
          "offset_ms": 3353,
          "recorded_at": 1775971148821
        },
        {
          "x": 800.18,
          "y": 470.51,
          "rel_x": 0.4343,
          "rel_y": 1.0213,
          "inside_target": false,
          "offset_ms": 3375,
          "recorded_at": 1775971148842
        },
        {
          "x": 830.17,
          "y": 488.83,
          "rel_x": 0.4838,
          "rel_y": 1.0863,
          "inside_target": false,
          "offset_ms": 3400,
          "recorded_at": 1775971148867
        },
        {
          "x": 846.19,
          "y": 513.36,
          "rel_x": 0.5102,
          "rel_y": 1.1733,
          "inside_target": false,
          "offset_ms": 3423,
          "recorded_at": 1775971148890
        },
        {
          "x": 837.49,
          "y": 511.34,
          "rel_x": 0.4959,
          "rel_y": 1.1661,
          "inside_target": false,
          "offset_ms": 3449,
          "recorded_at": 1775971148917
        },
        {
          "x": 829.54,
          "y": 509.56,
          "rel_x": 0.4827,
          "rel_y": 1.1598,
          "inside_target": false,
          "offset_ms": 3470,
          "recorded_at": 1775971148938
        },
        {
          "x": 820.63,
          "y": 506.71,
          "rel_x": 0.468,
          "rel_y": 1.1497,
          "inside_target": false,
          "offset_ms": 3493,
          "recorded_at": 1775971148961
        },
        {
          "x": 807.94,
          "y": 494.09,
          "rel_x": 0.4471,
          "rel_y": 1.1049,
          "inside_target": false,
          "offset_ms": 3520,
          "recorded_at": 1775971148988
        },
        {
          "x": 782.01,
          "y": 474.53,
          "rel_x": 0.4043,
          "rel_y": 1.0356,
          "inside_target": false,
          "offset_ms": 3542,
          "recorded_at": 1775971149010
        },
        {
          "x": 789.79,
          "y": 463.92,
          "rel_x": 0.4171,
          "rel_y": 0.998,
          "inside_target": true,
          "offset_ms": 3567,
          "recorded_at": 1775971149035
        },
        {
          "x": 785.79,
          "y": 453.89,
          "rel_x": 0.4105,
          "rel_y": 0.9624,
          "inside_target": true,
          "offset_ms": 3596,
          "recorded_at": 1775971149064
        },
        {
          "x": 781.23,
          "y": 456.74,
          "rel_x": 0.403,
          "rel_y": 0.9725,
          "inside_target": true,
          "offset_ms": 3621,
          "recorded_at": 1775971149089
        },
        {
          "x": 758.68,
          "y": 454.39,
          "rel_x": 0.3658,
          "rel_y": 0.9642,
          "inside_target": true,
          "offset_ms": 3650,
          "recorded_at": 1775971149118
        },
        {
          "x": 750.14,
          "y": 457.41,
          "rel_x": 0.3517,
          "rel_y": 0.9749,
          "inside_target": true,
          "offset_ms": 3672,
          "recorded_at": 1775971149140
        },
        {
          "x": 768.5,
          "y": 497.13,
          "rel_x": 0.382,
          "rel_y": 1.1157,
          "inside_target": false,
          "offset_ms": 3701,
          "recorded_at": 1775971149169
        },
        {
          "x": 760.03,
          "y": 500.14,
          "rel_x": 0.368,
          "rel_y": 1.1264,
          "inside_target": false,
          "offset_ms": 3725,
          "recorded_at": 1775971149192
        },
        {
          "x": 753.17,
          "y": 502.36,
          "rel_x": 0.3567,
          "rel_y": 1.1343,
          "inside_target": false,
          "offset_ms": 3748,
          "recorded_at": 1775971149216
        },
        {
          "x": 743.08,
          "y": 513.33,
          "rel_x": 0.3401,
          "rel_y": 1.1731,
          "inside_target": false,
          "offset_ms": 3770,
          "recorded_at": 1775971149237
        },
        {
          "x": 747.29,
          "y": 528.08,
          "rel_x": 0.347,
          "rel_y": 1.2255,
          "inside_target": false,
          "offset_ms": 3796,
          "recorded_at": 1775971149264
        },
        {
          "x": 763.76,
          "y": 538.33,
          "rel_x": 0.3742,
          "rel_y": 1.2618,
          "inside_target": false,
          "offset_ms": 3821,
          "recorded_at": 1775971149289
        },
        {
          "x": 771.38,
          "y": 546.65,
          "rel_x": 0.3868,
          "rel_y": 1.2913,
          "inside_target": false,
          "offset_ms": 3848,
          "recorded_at": 1775971149316
        },
        {
          "x": 784.23,
          "y": 557.72,
          "rel_x": 0.408,
          "rel_y": 1.3306,
          "inside_target": false,
          "offset_ms": 3872,
          "recorded_at": 1775971149339
        },
        {
          "x": 794.57,
          "y": 551.73,
          "rel_x": 0.425,
          "rel_y": 1.3093,
          "inside_target": false,
          "offset_ms": 3895,
          "recorded_at": 1775971149362
        },
        {
          "x": 804.66,
          "y": 554.44,
          "rel_x": 0.4417,
          "rel_y": 1.3189,
          "inside_target": false,
          "offset_ms": 3919,
          "recorded_at": 1775971149387
        },
        {
          "x": 812.83,
          "y": 556.15,
          "rel_x": 0.4552,
          "rel_y": 1.325,
          "inside_target": false,
          "offset_ms": 3941,
          "recorded_at": 1775971149409
        },
        {
          "x": 811.68,
          "y": 567.52,
          "rel_x": 0.4533,
          "rel_y": 1.3653,
          "inside_target": false,
          "offset_ms": 3964,
          "recorded_at": 1775971149431
        },
        {
          "x": 805.68,
          "y": 575.38,
          "rel_x": 0.4434,
          "rel_y": 1.3932,
          "inside_target": false,
          "offset_ms": 3989,
          "recorded_at": 1775971149456
        },
        {
          "x": 800.9,
          "y": 568.35,
          "rel_x": 0.4355,
          "rel_y": 1.3683,
          "inside_target": false,
          "offset_ms": 4011,
          "recorded_at": 1775971149479
        },
        {
          "x": 799.95,
          "y": 566.18,
          "rel_x": 0.4339,
          "rel_y": 1.3606,
          "inside_target": false,
          "offset_ms": 4034,
          "recorded_at": 1775971149502
        },
        {
          "x": 782.22,
          "y": 538.76,
          "rel_x": 0.4046,
          "rel_y": 1.2633,
          "inside_target": false,
          "offset_ms": 4057,
          "recorded_at": 1775971149525
        },
        {
          "x": 794.76,
          "y": 559.62,
          "rel_x": 0.4253,
          "rel_y": 1.3373,
          "inside_target": false,
          "offset_ms": 4085,
          "recorded_at": 1775971149552
        },
        {
          "x": 805.62,
          "y": 577.53,
          "rel_x": 0.4433,
          "rel_y": 1.4008,
          "inside_target": false,
          "offset_ms": 4107,
          "recorded_at": 1775971149574
        },
        {
          "x": 796.21,
          "y": 561.93,
          "rel_x": 0.4277,
          "rel_y": 1.3455,
          "inside_target": false,
          "offset_ms": 4130,
          "recorded_at": 1775971149598
        },
        {
          "x": 798.46,
          "y": 547.67,
          "rel_x": 0.4315,
          "rel_y": 1.2949,
          "inside_target": false,
          "offset_ms": 4154,
          "recorded_at": 1775971149622
        },
        {
          "x": 787.26,
          "y": 533.59,
          "rel_x": 0.413,
          "rel_y": 1.245,
          "inside_target": false,
          "offset_ms": 4176,
          "recorded_at": 1775971149644
        },
        {
          "x": 782.11,
          "y": 532.47,
          "rel_x": 0.4045,
          "rel_y": 1.241,
          "inside_target": false,
          "offset_ms": 4199,
          "recorded_at": 1775971149667
        },
        {
          "x": 785.99,
          "y": 538.14,
          "rel_x": 0.4109,
          "rel_y": 1.2611,
          "inside_target": false,
          "offset_ms": 4222,
          "recorded_at": 1775971149690
        },
        {
          "x": 789.49,
          "y": 543.28,
          "rel_x": 0.4166,
          "rel_y": 1.2793,
          "inside_target": false,
          "offset_ms": 4246,
          "recorded_at": 1775971149714
        },
        {
          "x": 801.73,
          "y": 528.96,
          "rel_x": 0.4368,
          "rel_y": 1.2286,
          "inside_target": false,
          "offset_ms": 4270,
          "recorded_at": 1775971149737
        },
        {
          "x": 802.74,
          "y": 519.47,
          "rel_x": 0.4385,
          "rel_y": 1.1949,
          "inside_target": false,
          "offset_ms": 4293,
          "recorded_at": 1775971149761
        },
        {
          "x": 812.84,
          "y": 503.32,
          "rel_x": 0.4552,
          "rel_y": 1.1376,
          "inside_target": false,
          "offset_ms": 4317,
          "recorded_at": 1775971149784
        },
        {
          "x": 818.89,
          "y": 486.59,
          "rel_x": 0.4652,
          "rel_y": 1.0783,
          "inside_target": false,
          "offset_ms": 4338,
          "recorded_at": 1775971149806
        },
        {
          "x": 818.23,
          "y": 475.08,
          "rel_x": 0.4641,
          "rel_y": 1.0375,
          "inside_target": false,
          "offset_ms": 4361,
          "recorded_at": 1775971149828
        },
        {
          "x": 809.45,
          "y": 465.32,
          "rel_x": 0.4496,
          "rel_y": 1.0029,
          "inside_target": false,
          "offset_ms": 4384,
          "recorded_at": 1775971149851
        },
        {
          "x": 801.67,
          "y": 457.9,
          "rel_x": 0.4368,
          "rel_y": 0.9766,
          "inside_target": true,
          "offset_ms": 4405,
          "recorded_at": 1775971149873
        },
        {
          "x": 797.57,
          "y": 467.43,
          "rel_x": 0.43,
          "rel_y": 1.0104,
          "inside_target": false,
          "offset_ms": 4429,
          "recorded_at": 1775971149896
        },
        {
          "x": 794.39,
          "y": 471.19,
          "rel_x": 0.4247,
          "rel_y": 1.0237,
          "inside_target": false,
          "offset_ms": 4453,
          "recorded_at": 1775971149921
        },
        {
          "x": 791.79,
          "y": 474.99,
          "rel_x": 0.4204,
          "rel_y": 1.0372,
          "inside_target": false,
          "offset_ms": 4475,
          "recorded_at": 1775971149943
        },
        {
          "x": 798.35,
          "y": 482.07,
          "rel_x": 0.4313,
          "rel_y": 1.0623,
          "inside_target": false,
          "offset_ms": 4497,
          "recorded_at": 1775971149965
        },
        {
          "x": 811.42,
          "y": 509.87,
          "rel_x": 0.4528,
          "rel_y": 1.1609,
          "inside_target": false,
          "offset_ms": 4521,
          "recorded_at": 1775971149988
        },
        {
          "x": 817.85,
          "y": 519.25,
          "rel_x": 0.4635,
          "rel_y": 1.1941,
          "inside_target": false,
          "offset_ms": 4543,
          "recorded_at": 1775971150011
        },
        {
          "x": 830.71,
          "y": 538.66,
          "rel_x": 0.4847,
          "rel_y": 1.263,
          "inside_target": false,
          "offset_ms": 4567,
          "recorded_at": 1775971150034
        },
        {
          "x": 841.89,
          "y": 553.92,
          "rel_x": 0.5031,
          "rel_y": 1.3171,
          "inside_target": false,
          "offset_ms": 4589,
          "recorded_at": 1775971150057
        },
        {
          "x": 850.94,
          "y": 566.18,
          "rel_x": 0.518,
          "rel_y": 1.3606,
          "inside_target": false,
          "offset_ms": 4612,
          "recorded_at": 1775971150079
        },
        {
          "x": 881.87,
          "y": 605.05,
          "rel_x": 0.5691,
          "rel_y": 1.4984,
          "inside_target": false,
          "offset_ms": 4633,
          "recorded_at": 1775971150101
        },
        {
          "x": 897.06,
          "y": 631.66,
          "rel_x": 0.5942,
          "rel_y": 1.5928,
          "inside_target": false,
          "offset_ms": 4655,
          "recorded_at": 1775971150123
        },
        {
          "x": 908.91,
          "y": 652.82,
          "rel_x": 0.6137,
          "rel_y": 1.6678,
          "inside_target": false,
          "offset_ms": 4678,
          "recorded_at": 1775971150145
        },
        {
          "x": 910.75,
          "y": 665.47,
          "rel_x": 0.6167,
          "rel_y": 1.7126,
          "inside_target": false,
          "offset_ms": 4699,
          "recorded_at": 1775971150167
        },
        {
          "x": 901.97,
          "y": 626,
          "rel_x": 0.6023,
          "rel_y": 1.5727,
          "inside_target": false,
          "offset_ms": 4722,
          "recorded_at": 1775971150190
        },
        {
          "x": 903.67,
          "y": 638.62,
          "rel_x": 0.6051,
          "rel_y": 1.6175,
          "inside_target": false,
          "offset_ms": 4751,
          "recorded_at": 1775971150218
        },
        {
          "x": 891.82,
          "y": 644.62,
          "rel_x": 0.5855,
          "rel_y": 1.6387,
          "inside_target": false,
          "offset_ms": 4772,
          "recorded_at": 1775971150240
        },
        {
          "x": 880.05,
          "y": 642.81,
          "rel_x": 0.5661,
          "rel_y": 1.6323,
          "inside_target": false,
          "offset_ms": 4795,
          "recorded_at": 1775971150262
        },
        {
          "x": 879.38,
          "y": 626.8,
          "rel_x": 0.565,
          "rel_y": 1.5755,
          "inside_target": false,
          "offset_ms": 4816,
          "recorded_at": 1775971150284
        },
        {
          "x": 885.78,
          "y": 622.96,
          "rel_x": 0.5755,
          "rel_y": 1.5619,
          "inside_target": false,
          "offset_ms": 4837,
          "recorded_at": 1775971150305
        },
        {
          "x": 878.32,
          "y": 588.23,
          "rel_x": 0.5632,
          "rel_y": 1.4387,
          "inside_target": false,
          "offset_ms": 4860,
          "recorded_at": 1775971150328
        },
        {
          "x": 874.43,
          "y": 565.56,
          "rel_x": 0.5568,
          "rel_y": 1.3584,
          "inside_target": false,
          "offset_ms": 4884,
          "recorded_at": 1775971150351
        },
        {
          "x": 860.63,
          "y": 548.54,
          "rel_x": 0.534,
          "rel_y": 1.298,
          "inside_target": false,
          "offset_ms": 4904,
          "recorded_at": 1775971150372
        },
        {
          "x": 885.08,
          "y": 562.8,
          "rel_x": 0.5744,
          "rel_y": 1.3486,
          "inside_target": false,
          "offset_ms": 4927,
          "recorded_at": 1775971150394
        },
        {
          "x": 898.02,
          "y": 551.24,
          "rel_x": 0.5957,
          "rel_y": 1.3076,
          "inside_target": false,
          "offset_ms": 4950,
          "recorded_at": 1775971150418
        },
        {
          "x": 908.84,
          "y": 541.93,
          "rel_x": 0.6136,
          "rel_y": 1.2746,
          "inside_target": false,
          "offset_ms": 4971,
          "recorded_at": 1775971150439
        },
        {
          "x": 903.79,
          "y": 539.12,
          "rel_x": 0.6053,
          "rel_y": 1.2646,
          "inside_target": false,
          "offset_ms": 4995,
          "recorded_at": 1775971150462
        },
        {
          "x": 883.04,
          "y": 533.25,
          "rel_x": 0.571,
          "rel_y": 1.2438,
          "inside_target": false,
          "offset_ms": 5017,
          "recorded_at": 1775971150485
        },
        {
          "x": 858.78,
          "y": 532.05,
          "rel_x": 0.531,
          "rel_y": 1.2395,
          "inside_target": false,
          "offset_ms": 5038,
          "recorded_at": 1775971150506
        },
        {
          "x": 779.34,
          "y": 495.03,
          "rel_x": 0.3999,
          "rel_y": 1.1083,
          "inside_target": false,
          "offset_ms": 5061,
          "recorded_at": 1775971150528
        },
        {
          "x": 717.77,
          "y": 485.86,
          "rel_x": 0.2983,
          "rel_y": 1.0757,
          "inside_target": false,
          "offset_ms": 5083,
          "recorded_at": 1775971150551
        },
        {
          "x": 667.17,
          "y": 479.17,
          "rel_x": 0.2148,
          "rel_y": 1.052,
          "inside_target": false,
          "offset_ms": 5105,
          "recorded_at": 1775971150572
        },
        {
          "x": 625.1,
          "y": 477.98,
          "rel_x": 0.1454,
          "rel_y": 1.0478,
          "inside_target": false,
          "offset_ms": 5127,
          "recorded_at": 1775971150595
        },
        {
          "x": 593.39,
          "y": 469.91,
          "rel_x": 0.093,
          "rel_y": 1.0192,
          "inside_target": false,
          "offset_ms": 5150,
          "recorded_at": 1775971150618
        },
        {
          "x": 569.68,
          "y": 463.95,
          "rel_x": 0.0539,
          "rel_y": 0.998,
          "inside_target": true,
          "offset_ms": 5172,
          "recorded_at": 1775971150639
        },
        {
          "x": 548.37,
          "y": 437.54,
          "rel_x": 0.0188,
          "rel_y": 0.9044,
          "inside_target": true,
          "offset_ms": 5194,
          "recorded_at": 1775971150662
        },
        {
          "x": 541.84,
          "y": 419.37,
          "rel_x": 0.008,
          "rel_y": 0.84,
          "inside_target": true,
          "offset_ms": 5215,
          "recorded_at": 1775971150683
        },
        {
          "x": 539.36,
          "y": 405.1,
          "rel_x": 0.0039,
          "rel_y": 0.7894,
          "inside_target": true,
          "offset_ms": 5237,
          "recorded_at": 1775971150704
        },
        {
          "x": 533.69,
          "y": 391.41,
          "rel_x": -0.0055,
          "rel_y": 0.7408,
          "inside_target": false,
          "offset_ms": 5259,
          "recorded_at": 1775971150726
        },
        {
          "x": 530.95,
          "y": 383.74,
          "rel_x": -0.01,
          "rel_y": 0.7136,
          "inside_target": false,
          "offset_ms": 5281,
          "recorded_at": 1775971150748
        },
        {
          "x": 530.72,
          "y": 378.61,
          "rel_x": -0.0104,
          "rel_y": 0.6954,
          "inside_target": false,
          "offset_ms": 5301,
          "recorded_at": 1775971150769
        },
        {
          "x": 539.68,
          "y": 376.6,
          "rel_x": 0.0044,
          "rel_y": 0.6883,
          "inside_target": true,
          "offset_ms": 5323,
          "recorded_at": 1775971150791
        },
        {
          "x": 548.83,
          "y": 376.08,
          "rel_x": 0.0195,
          "rel_y": 0.6864,
          "inside_target": true,
          "offset_ms": 5344,
          "recorded_at": 1775971150812
        },
        {
          "x": 556.47,
          "y": 373.28,
          "rel_x": 0.0321,
          "rel_y": 0.6765,
          "inside_target": true,
          "offset_ms": 5367,
          "recorded_at": 1775971150834
        },
        {
          "x": 574.01,
          "y": 375.72,
          "rel_x": 0.0611,
          "rel_y": 0.6852,
          "inside_target": true,
          "offset_ms": 5389,
          "recorded_at": 1775971150857
        },
        {
          "x": 589.49,
          "y": 378.61,
          "rel_x": 0.0866,
          "rel_y": 0.6954,
          "inside_target": true,
          "offset_ms": 5410,
          "recorded_at": 1775971150878
        },
        {
          "x": 592.37,
          "y": 380.13,
          "rel_x": 0.0914,
          "rel_y": 0.7008,
          "inside_target": true,
          "offset_ms": 5436,
          "recorded_at": 1775971150903
        },
        {
          "x": 596.03,
          "y": 389.52,
          "rel_x": 0.0974,
          "rel_y": 0.7341,
          "inside_target": true,
          "offset_ms": 5457,
          "recorded_at": 1775971150925
        }
      ]
    },
    "task2_info": {
      "metrics": {
        "total_samples": 202,
        "in_target_samples": 73,
        "on_target_ratio": 0.36,
        "first_fixation_latency_ms": 44,
        "dwell_time_ms": 3650,
        "region_width": 606,
        "region_height": 242,
        "points": [
          {
            "rel_x": 0.3197,
            "rel_y": 0.9923
          },
          {
            "rel_x": 0.3936,
            "rel_y": 0.8704
          },
          {
            "rel_x": 0.3902,
            "rel_y": 0.7521
          },
          {
            "rel_x": 0.3939,
            "rel_y": 0.6599
          },
          {
            "rel_x": 0.3819,
            "rel_y": 0.5298
          },
          {
            "rel_x": 0.3814,
            "rel_y": 0.6445
          },
          {
            "rel_x": 0.4444,
            "rel_y": 0.7202
          },
          {
            "rel_x": 0.4848,
            "rel_y": 0.5397
          },
          {
            "rel_x": 0.5186,
            "rel_y": 0.391
          },
          {
            "rel_x": 0.5263,
            "rel_y": 0.3658
          },
          {
            "rel_x": 0.5707,
            "rel_y": 0.2307
          },
          {
            "rel_x": 0.6273,
            "rel_y": 0.1841
          },
          {
            "rel_x": 0.6398,
            "rel_y": 0.2139
          },
          {
            "rel_x": 0.6344,
            "rel_y": 0.2929
          },
          {
            "rel_x": 0.6347,
            "rel_y": 0.3817
          },
          {
            "rel_x": 0.6529,
            "rel_y": 0.3943
          },
          {
            "rel_x": 0.6412,
            "rel_y": 0.4319
          },
          {
            "rel_x": 0.6804,
            "rel_y": 0.4308
          },
          {
            "rel_x": 0.697,
            "rel_y": 0.4111
          },
          {
            "rel_x": 0.676,
            "rel_y": 0.5246
          },
          {
            "rel_x": 0.6936,
            "rel_y": 0.5982
          },
          {
            "rel_x": 0.6682,
            "rel_y": 0.6011
          },
          {
            "rel_x": 0.6293,
            "rel_y": 0.6857
          },
          {
            "rel_x": 0.6353,
            "rel_y": 0.7696
          },
          {
            "rel_x": 0.6383,
            "rel_y": 0.8368
          },
          {
            "rel_x": 0.5917,
            "rel_y": 0.9482
          },
          {
            "rel_x": 0.688,
            "rel_y": 0.8854
          },
          {
            "rel_x": 0.6627,
            "rel_y": 0.8269
          },
          {
            "rel_x": 0.634,
            "rel_y": 0.6708
          },
          {
            "rel_x": 0.6506,
            "rel_y": 0.645
          },
          {
            "rel_x": 0.654,
            "rel_y": 0.7074
          },
          {
            "rel_x": 0.6757,
            "rel_y": 0.7615
          },
          {
            "rel_x": 0.6818,
            "rel_y": 0.887
          },
          {
            "rel_x": 0.3461,
            "rel_y": 0.9114
          },
          {
            "rel_x": 0.3327,
            "rel_y": 0.7536
          },
          {
            "rel_x": 0.3199,
            "rel_y": 0.7013
          },
          {
            "rel_x": 0.3115,
            "rel_y": 0.6609
          },
          {
            "rel_x": 0.317,
            "rel_y": 0.6861
          },
          {
            "rel_x": 0.3342,
            "rel_y": 0.7274
          },
          {
            "rel_x": 0.3415,
            "rel_y": 0.8001
          },
          {
            "rel_x": 0.3569,
            "rel_y": 0.8705
          },
          {
            "rel_x": 0.3347,
            "rel_y": 0.8484
          },
          {
            "rel_x": 0.3161,
            "rel_y": 0.8312
          },
          {
            "rel_x": 0.313,
            "rel_y": 0.7406
          },
          {
            "rel_x": 0.3362,
            "rel_y": 0.6881
          },
          {
            "rel_x": 0.3356,
            "rel_y": 0.6141
          },
          {
            "rel_x": 0.3266,
            "rel_y": 0.5947
          },
          {
            "rel_x": 0.3464,
            "rel_y": 0.6301
          },
          {
            "rel_x": 0.3636,
            "rel_y": 0.664
          },
          {
            "rel_x": 0.4032,
            "rel_y": 0.7194
          },
          {
            "rel_x": 0.3977,
            "rel_y": 0.8093
          },
          {
            "rel_x": 0.4594,
            "rel_y": 0.9057
          },
          {
            "rel_x": 0.4693,
            "rel_y": 0.9034
          },
          {
            "rel_x": 0.5304,
            "rel_y": 0.968
          },
          {
            "rel_x": 0.5098,
            "rel_y": 0.9404
          },
          {
            "rel_x": 0.5095,
            "rel_y": 0.9262
          },
          {
            "rel_x": 0.5238,
            "rel_y": 0.8644
          },
          {
            "rel_x": 0.5278,
            "rel_y": 0.864
          },
          {
            "rel_x": 0.5276,
            "rel_y": 0.8538
          },
          {
            "rel_x": 0.5249,
            "rel_y": 0.8718
          },
          {
            "rel_x": 0.5227,
            "rel_y": 0.8888
          },
          {
            "rel_x": 0.5235,
            "rel_y": 0.8633
          },
          {
            "rel_x": 0.4795,
            "rel_y": 0.9157
          },
          {
            "rel_x": 0.4422,
            "rel_y": 0.9613
          },
          {
            "rel_x": 0.4398,
            "rel_y": 0.9795
          },
          {
            "rel_x": 0.4759,
            "rel_y": 0.9861
          },
          {
            "rel_x": 0.4897,
            "rel_y": 0.9522
          },
          {
            "rel_x": 0.487,
            "rel_y": 0.9554
          },
          {
            "rel_x": 0.4947,
            "rel_y": 0.9362
          },
          {
            "rel_x": 0.4972,
            "rel_y": 0.912
          },
          {
            "rel_x": 0.4859,
            "rel_y": 0.807
          },
          {
            "rel_x": 0.459,
            "rel_y": 0.8207
          },
          {
            "rel_x": 0.4619,
            "rel_y": 0.9963
          }
        ]
      },
      "raw_samples": [
        {
          "x": 729.45,
          "y": 431.89,
          "rel_x": 0.3176,
          "rel_y": 1.0305,
          "inside_target": false,
          "offset_ms": 22,
          "recorded_at": 1775971166318
        },
        {
          "x": 730.76,
          "y": 422.64,
          "rel_x": 0.3197,
          "rel_y": 0.9923,
          "inside_target": true,
          "offset_ms": 44,
          "recorded_at": 1775971166340
        },
        {
          "x": 735.23,
          "y": 436.08,
          "rel_x": 0.3271,
          "rel_y": 1.0478,
          "inside_target": false,
          "offset_ms": 70,
          "recorded_at": 1775971166367
        },
        {
          "x": 753.06,
          "y": 431.51,
          "rel_x": 0.3565,
          "rel_y": 1.029,
          "inside_target": false,
          "offset_ms": 93,
          "recorded_at": 1775971166390
        },
        {
          "x": 779.02,
          "y": 461.37,
          "rel_x": 0.3994,
          "rel_y": 1.1523,
          "inside_target": false,
          "offset_ms": 117,
          "recorded_at": 1775971166413
        },
        {
          "x": 786.97,
          "y": 467.17,
          "rel_x": 0.4125,
          "rel_y": 1.1763,
          "inside_target": false,
          "offset_ms": 140,
          "recorded_at": 1775971166437
        },
        {
          "x": 785.22,
          "y": 509.86,
          "rel_x": 0.4096,
          "rel_y": 1.3527,
          "inside_target": false,
          "offset_ms": 164,
          "recorded_at": 1775971166461
        },
        {
          "x": 808.44,
          "y": 531.27,
          "rel_x": 0.4479,
          "rel_y": 1.4412,
          "inside_target": false,
          "offset_ms": 189,
          "recorded_at": 1775971166485
        },
        {
          "x": 790.98,
          "y": 554.61,
          "rel_x": 0.4191,
          "rel_y": 1.5377,
          "inside_target": false,
          "offset_ms": 210,
          "recorded_at": 1775971166507
        },
        {
          "x": 759.32,
          "y": 584.38,
          "rel_x": 0.3669,
          "rel_y": 1.6607,
          "inside_target": false,
          "offset_ms": 232,
          "recorded_at": 1775971166529
        },
        {
          "x": 773.05,
          "y": 594.04,
          "rel_x": 0.3895,
          "rel_y": 1.7006,
          "inside_target": false,
          "offset_ms": 256,
          "recorded_at": 1775971166553
        },
        {
          "x": 776,
          "y": 589.72,
          "rel_x": 0.3944,
          "rel_y": 1.6827,
          "inside_target": false,
          "offset_ms": 279,
          "recorded_at": 1775971166575
        },
        {
          "x": 778.41,
          "y": 584.36,
          "rel_x": 0.3984,
          "rel_y": 1.6606,
          "inside_target": false,
          "offset_ms": 301,
          "recorded_at": 1775971166598
        },
        {
          "x": 783.73,
          "y": 576.88,
          "rel_x": 0.4072,
          "rel_y": 1.6297,
          "inside_target": false,
          "offset_ms": 323,
          "recorded_at": 1775971166619
        },
        {
          "x": 789.16,
          "y": 573.39,
          "rel_x": 0.4161,
          "rel_y": 1.6152,
          "inside_target": false,
          "offset_ms": 346,
          "recorded_at": 1775971166642
        },
        {
          "x": 793.55,
          "y": 569.64,
          "rel_x": 0.4234,
          "rel_y": 1.5998,
          "inside_target": false,
          "offset_ms": 368,
          "recorded_at": 1775971166664
        },
        {
          "x": 806.7,
          "y": 568.48,
          "rel_x": 0.445,
          "rel_y": 1.595,
          "inside_target": false,
          "offset_ms": 390,
          "recorded_at": 1775971166687
        },
        {
          "x": 792.7,
          "y": 587.46,
          "rel_x": 0.4219,
          "rel_y": 1.6734,
          "inside_target": false,
          "offset_ms": 413,
          "recorded_at": 1775971166709
        },
        {
          "x": 780.32,
          "y": 603.24,
          "rel_x": 0.4015,
          "rel_y": 1.7386,
          "inside_target": false,
          "offset_ms": 434,
          "recorded_at": 1775971166731
        },
        {
          "x": 792.91,
          "y": 566.04,
          "rel_x": 0.4223,
          "rel_y": 1.5849,
          "inside_target": false,
          "offset_ms": 457,
          "recorded_at": 1775971166753
        },
        {
          "x": 830.37,
          "y": 529.43,
          "rel_x": 0.4841,
          "rel_y": 1.4336,
          "inside_target": false,
          "offset_ms": 480,
          "recorded_at": 1775971166776
        },
        {
          "x": 862.06,
          "y": 498.26,
          "rel_x": 0.5364,
          "rel_y": 1.3048,
          "inside_target": false,
          "offset_ms": 501,
          "recorded_at": 1775971166798
        },
        {
          "x": 853.68,
          "y": 500.62,
          "rel_x": 0.5226,
          "rel_y": 1.3145,
          "inside_target": false,
          "offset_ms": 524,
          "recorded_at": 1775971166821
        },
        {
          "x": 802.7,
          "y": 442.92,
          "rel_x": 0.4384,
          "rel_y": 1.0761,
          "inside_target": false,
          "offset_ms": 548,
          "recorded_at": 1775971166845
        },
        {
          "x": 775.51,
          "y": 393.13,
          "rel_x": 0.3936,
          "rel_y": 0.8704,
          "inside_target": true,
          "offset_ms": 570,
          "recorded_at": 1775971166866
        },
        {
          "x": 773.46,
          "y": 364.52,
          "rel_x": 0.3902,
          "rel_y": 0.7521,
          "inside_target": true,
          "offset_ms": 593,
          "recorded_at": 1775971166889
        },
        {
          "x": 775.69,
          "y": 342.2,
          "rel_x": 0.3939,
          "rel_y": 0.6599,
          "inside_target": true,
          "offset_ms": 617,
          "recorded_at": 1775971166913
        },
        {
          "x": 768.41,
          "y": 310.72,
          "rel_x": 0.3819,
          "rel_y": 0.5298,
          "inside_target": true,
          "offset_ms": 641,
          "recorded_at": 1775971166937
        },
        {
          "x": 768.13,
          "y": 338.46,
          "rel_x": 0.3814,
          "rel_y": 0.6445,
          "inside_target": true,
          "offset_ms": 665,
          "recorded_at": 1775971166962
        },
        {
          "x": 806.3,
          "y": 356.78,
          "rel_x": 0.4444,
          "rel_y": 0.7202,
          "inside_target": true,
          "offset_ms": 690,
          "recorded_at": 1775971166987
        },
        {
          "x": 830.77,
          "y": 313.1,
          "rel_x": 0.4848,
          "rel_y": 0.5397,
          "inside_target": true,
          "offset_ms": 714,
          "recorded_at": 1775971167011
        },
        {
          "x": 851.26,
          "y": 277.12,
          "rel_x": 0.5186,
          "rel_y": 0.391,
          "inside_target": true,
          "offset_ms": 735,
          "recorded_at": 1775971167032
        },
        {
          "x": 855.96,
          "y": 271.02,
          "rel_x": 0.5263,
          "rel_y": 0.3658,
          "inside_target": true,
          "offset_ms": 758,
          "recorded_at": 1775971167055
        },
        {
          "x": 882.86,
          "y": 238.33,
          "rel_x": 0.5707,
          "rel_y": 0.2307,
          "inside_target": true,
          "offset_ms": 782,
          "recorded_at": 1775971167079
        },
        {
          "x": 917.16,
          "y": 227.06,
          "rel_x": 0.6273,
          "rel_y": 0.1841,
          "inside_target": true,
          "offset_ms": 804,
          "recorded_at": 1775971167101
        },
        {
          "x": 924.72,
          "y": 234.26,
          "rel_x": 0.6398,
          "rel_y": 0.2139,
          "inside_target": true,
          "offset_ms": 827,
          "recorded_at": 1775971167123
        },
        {
          "x": 921.45,
          "y": 253.38,
          "rel_x": 0.6344,
          "rel_y": 0.2929,
          "inside_target": true,
          "offset_ms": 850,
          "recorded_at": 1775971167147
        },
        {
          "x": 921.64,
          "y": 274.86,
          "rel_x": 0.6347,
          "rel_y": 0.3817,
          "inside_target": true,
          "offset_ms": 872,
          "recorded_at": 1775971167169
        },
        {
          "x": 932.64,
          "y": 277.91,
          "rel_x": 0.6529,
          "rel_y": 0.3943,
          "inside_target": true,
          "offset_ms": 894,
          "recorded_at": 1775971167190
        },
        {
          "x": 925.54,
          "y": 287.02,
          "rel_x": 0.6412,
          "rel_y": 0.4319,
          "inside_target": true,
          "offset_ms": 916,
          "recorded_at": 1775971167212
        },
        {
          "x": 949.33,
          "y": 286.75,
          "rel_x": 0.6804,
          "rel_y": 0.4308,
          "inside_target": true,
          "offset_ms": 937,
          "recorded_at": 1775971167234
        },
        {
          "x": 959.37,
          "y": 281.97,
          "rel_x": 0.697,
          "rel_y": 0.4111,
          "inside_target": true,
          "offset_ms": 960,
          "recorded_at": 1775971167256
        },
        {
          "x": 946.69,
          "y": 309.46,
          "rel_x": 0.676,
          "rel_y": 0.5246,
          "inside_target": true,
          "offset_ms": 983,
          "recorded_at": 1775971167280
        },
        {
          "x": 957.35,
          "y": 327.26,
          "rel_x": 0.6936,
          "rel_y": 0.5982,
          "inside_target": true,
          "offset_ms": 1004,
          "recorded_at": 1775971167301
        },
        {
          "x": 941.9,
          "y": 327.97,
          "rel_x": 0.6682,
          "rel_y": 0.6011,
          "inside_target": true,
          "offset_ms": 1027,
          "recorded_at": 1775971167323
        },
        {
          "x": 918.33,
          "y": 348.43,
          "rel_x": 0.6293,
          "rel_y": 0.6857,
          "inside_target": true,
          "offset_ms": 1049,
          "recorded_at": 1775971167346
        },
        {
          "x": 921.97,
          "y": 368.74,
          "rel_x": 0.6353,
          "rel_y": 0.7696,
          "inside_target": true,
          "offset_ms": 1072,
          "recorded_at": 1775971167368
        },
        {
          "x": 923.83,
          "y": 384.99,
          "rel_x": 0.6383,
          "rel_y": 0.8368,
          "inside_target": true,
          "offset_ms": 1094,
          "recorded_at": 1775971167390
        },
        {
          "x": 895.57,
          "y": 411.96,
          "rel_x": 0.5917,
          "rel_y": 0.9482,
          "inside_target": true,
          "offset_ms": 1118,
          "recorded_at": 1775971167414
        },
        {
          "x": 878.32,
          "y": 436.65,
          "rel_x": 0.5632,
          "rel_y": 1.0502,
          "inside_target": false,
          "offset_ms": 1138,
          "recorded_at": 1775971167435
        },
        {
          "x": 882.69,
          "y": 438.44,
          "rel_x": 0.5704,
          "rel_y": 1.0576,
          "inside_target": false,
          "offset_ms": 1161,
          "recorded_at": 1775971167458
        },
        {
          "x": 930.52,
          "y": 459.04,
          "rel_x": 0.6494,
          "rel_y": 1.1427,
          "inside_target": false,
          "offset_ms": 1185,
          "recorded_at": 1775971167482
        },
        {
          "x": 943.68,
          "y": 452.38,
          "rel_x": 0.6711,
          "rel_y": 1.1152,
          "inside_target": false,
          "offset_ms": 1207,
          "recorded_at": 1775971167503
        },
        {
          "x": 953.95,
          "y": 396.77,
          "rel_x": 0.688,
          "rel_y": 0.8854,
          "inside_target": true,
          "offset_ms": 1230,
          "recorded_at": 1775971167527
        },
        {
          "x": 938.57,
          "y": 382.6,
          "rel_x": 0.6627,
          "rel_y": 0.8269,
          "inside_target": true,
          "offset_ms": 1254,
          "recorded_at": 1775971167550
        },
        {
          "x": 921.19,
          "y": 344.84,
          "rel_x": 0.634,
          "rel_y": 0.6708,
          "inside_target": true,
          "offset_ms": 1275,
          "recorded_at": 1775971167571
        },
        {
          "x": 931.26,
          "y": 338.58,
          "rel_x": 0.6506,
          "rel_y": 0.645,
          "inside_target": true,
          "offset_ms": 1298,
          "recorded_at": 1775971167594
        },
        {
          "x": 933.33,
          "y": 353.68,
          "rel_x": 0.654,
          "rel_y": 0.7074,
          "inside_target": true,
          "offset_ms": 1321,
          "recorded_at": 1775971167618
        },
        {
          "x": 946.48,
          "y": 366.78,
          "rel_x": 0.6757,
          "rel_y": 0.7615,
          "inside_target": true,
          "offset_ms": 1343,
          "recorded_at": 1775971167639
        },
        {
          "x": 950.19,
          "y": 397.16,
          "rel_x": 0.6818,
          "rel_y": 0.887,
          "inside_target": true,
          "offset_ms": 1365,
          "recorded_at": 1775971167661
        },
        {
          "x": 947.24,
          "y": 486.45,
          "rel_x": 0.677,
          "rel_y": 1.256,
          "inside_target": false,
          "offset_ms": 1388,
          "recorded_at": 1775971167685
        },
        {
          "x": 944.38,
          "y": 561.94,
          "rel_x": 0.6722,
          "rel_y": 1.568,
          "inside_target": false,
          "offset_ms": 1410,
          "recorded_at": 1775971167707
        },
        {
          "x": 896.68,
          "y": 620.34,
          "rel_x": 0.5935,
          "rel_y": 1.8092,
          "inside_target": false,
          "offset_ms": 1433,
          "recorded_at": 1775971167729
        },
        {
          "x": 874.03,
          "y": 691.98,
          "rel_x": 0.5562,
          "rel_y": 2.1053,
          "inside_target": false,
          "offset_ms": 1456,
          "recorded_at": 1775971167752
        },
        {
          "x": 850.99,
          "y": 720.68,
          "rel_x": 0.5181,
          "rel_y": 2.2239,
          "inside_target": false,
          "offset_ms": 1478,
          "recorded_at": 1775971167775
        },
        {
          "x": 838.91,
          "y": 739.14,
          "rel_x": 0.4982,
          "rel_y": 2.3002,
          "inside_target": false,
          "offset_ms": 1500,
          "recorded_at": 1775971167796
        },
        {
          "x": 852.86,
          "y": 763.16,
          "rel_x": 0.5212,
          "rel_y": 2.3994,
          "inside_target": false,
          "offset_ms": 1524,
          "recorded_at": 1775971167820
        },
        {
          "x": 854.95,
          "y": 775.97,
          "rel_x": 0.5247,
          "rel_y": 2.4524,
          "inside_target": false,
          "offset_ms": 1547,
          "recorded_at": 1775971167843
        },
        {
          "x": 854.9,
          "y": 781.24,
          "rel_x": 0.5246,
          "rel_y": 2.4741,
          "inside_target": false,
          "offset_ms": 1568,
          "recorded_at": 1775971167865
        },
        {
          "x": 863.36,
          "y": 771.24,
          "rel_x": 0.5385,
          "rel_y": 2.4328,
          "inside_target": false,
          "offset_ms": 1591,
          "recorded_at": 1775971167887
        },
        {
          "x": 852.78,
          "y": 749.99,
          "rel_x": 0.5211,
          "rel_y": 2.345,
          "inside_target": false,
          "offset_ms": 1614,
          "recorded_at": 1775971167911
        },
        {
          "x": 822.9,
          "y": 706.14,
          "rel_x": 0.4718,
          "rel_y": 2.1638,
          "inside_target": false,
          "offset_ms": 1636,
          "recorded_at": 1775971167932
        },
        {
          "x": 805.54,
          "y": 652.43,
          "rel_x": 0.4431,
          "rel_y": 1.9419,
          "inside_target": false,
          "offset_ms": 1658,
          "recorded_at": 1775971167954
        },
        {
          "x": 825.44,
          "y": 625.32,
          "rel_x": 0.476,
          "rel_y": 1.8298,
          "inside_target": false,
          "offset_ms": 1681,
          "recorded_at": 1775971167978
        },
        {
          "x": 843.4,
          "y": 602.72,
          "rel_x": 0.5056,
          "rel_y": 1.7364,
          "inside_target": false,
          "offset_ms": 1703,
          "recorded_at": 1775971167999
        },
        {
          "x": 838.28,
          "y": 584.08,
          "rel_x": 0.4972,
          "rel_y": 1.6594,
          "inside_target": false,
          "offset_ms": 1724,
          "recorded_at": 1775971168021
        },
        {
          "x": 852.16,
          "y": 581.89,
          "rel_x": 0.5201,
          "rel_y": 1.6504,
          "inside_target": false,
          "offset_ms": 1747,
          "recorded_at": 1775971168044
        },
        {
          "x": 864.18,
          "y": 581.26,
          "rel_x": 0.5399,
          "rel_y": 1.6478,
          "inside_target": false,
          "offset_ms": 1768,
          "recorded_at": 1775971168064
        },
        {
          "x": 869.38,
          "y": 584.44,
          "rel_x": 0.5485,
          "rel_y": 1.6609,
          "inside_target": false,
          "offset_ms": 1789,
          "recorded_at": 1775971168086
        },
        {
          "x": 858.38,
          "y": 561.64,
          "rel_x": 0.5303,
          "rel_y": 1.5667,
          "inside_target": false,
          "offset_ms": 1811,
          "recorded_at": 1775971168108
        },
        {
          "x": 848.74,
          "y": 543,
          "rel_x": 0.5144,
          "rel_y": 1.4897,
          "inside_target": false,
          "offset_ms": 1833,
          "recorded_at": 1775971168129
        },
        {
          "x": 847.81,
          "y": 537.33,
          "rel_x": 0.5129,
          "rel_y": 1.4662,
          "inside_target": false,
          "offset_ms": 1856,
          "recorded_at": 1775971168153
        },
        {
          "x": 822.01,
          "y": 520.07,
          "rel_x": 0.4703,
          "rel_y": 1.3949,
          "inside_target": false,
          "offset_ms": 1879,
          "recorded_at": 1775971168175
        },
        {
          "x": 800.18,
          "y": 506.5,
          "rel_x": 0.4343,
          "rel_y": 1.3388,
          "inside_target": false,
          "offset_ms": 1900,
          "recorded_at": 1775971168196
        },
        {
          "x": 776.14,
          "y": 477.6,
          "rel_x": 0.3946,
          "rel_y": 1.2194,
          "inside_target": false,
          "offset_ms": 1923,
          "recorded_at": 1775971168219
        },
        {
          "x": 754.69,
          "y": 424.72,
          "rel_x": 0.3592,
          "rel_y": 1.0009,
          "inside_target": false,
          "offset_ms": 1944,
          "recorded_at": 1775971168241
        },
        {
          "x": 746.72,
          "y": 403.06,
          "rel_x": 0.3461,
          "rel_y": 0.9114,
          "inside_target": true,
          "offset_ms": 1966,
          "recorded_at": 1775971168263
        },
        {
          "x": 738.63,
          "y": 364.88,
          "rel_x": 0.3327,
          "rel_y": 0.7536,
          "inside_target": true,
          "offset_ms": 1989,
          "recorded_at": 1775971168285
        },
        {
          "x": 730.89,
          "y": 352.21,
          "rel_x": 0.3199,
          "rel_y": 0.7013,
          "inside_target": true,
          "offset_ms": 2011,
          "recorded_at": 1775971168308
        },
        {
          "x": 725.76,
          "y": 342.43,
          "rel_x": 0.3115,
          "rel_y": 0.6609,
          "inside_target": true,
          "offset_ms": 2031,
          "recorded_at": 1775971168328
        },
        {
          "x": 729.08,
          "y": 348.54,
          "rel_x": 0.317,
          "rel_y": 0.6861,
          "inside_target": true,
          "offset_ms": 2053,
          "recorded_at": 1775971168350
        },
        {
          "x": 739.5,
          "y": 358.54,
          "rel_x": 0.3342,
          "rel_y": 0.7274,
          "inside_target": true,
          "offset_ms": 2074,
          "recorded_at": 1775971168371
        },
        {
          "x": 743.96,
          "y": 376.12,
          "rel_x": 0.3415,
          "rel_y": 0.8001,
          "inside_target": true,
          "offset_ms": 2097,
          "recorded_at": 1775971168394
        },
        {
          "x": 753.25,
          "y": 393.17,
          "rel_x": 0.3569,
          "rel_y": 0.8705,
          "inside_target": true,
          "offset_ms": 2122,
          "recorded_at": 1775971168419
        },
        {
          "x": 739.81,
          "y": 387.81,
          "rel_x": 0.3347,
          "rel_y": 0.8484,
          "inside_target": true,
          "offset_ms": 2146,
          "recorded_at": 1775971168442
        },
        {
          "x": 728.54,
          "y": 383.66,
          "rel_x": 0.3161,
          "rel_y": 0.8312,
          "inside_target": true,
          "offset_ms": 2168,
          "recorded_at": 1775971168464
        },
        {
          "x": 726.66,
          "y": 361.73,
          "rel_x": 0.313,
          "rel_y": 0.7406,
          "inside_target": true,
          "offset_ms": 2190,
          "recorded_at": 1775971168486
        },
        {
          "x": 740.75,
          "y": 349.02,
          "rel_x": 0.3362,
          "rel_y": 0.6881,
          "inside_target": true,
          "offset_ms": 2212,
          "recorded_at": 1775971168508
        },
        {
          "x": 740.35,
          "y": 331.11,
          "rel_x": 0.3356,
          "rel_y": 0.6141,
          "inside_target": true,
          "offset_ms": 2234,
          "recorded_at": 1775971168531
        },
        {
          "x": 734.93,
          "y": 326.42,
          "rel_x": 0.3266,
          "rel_y": 0.5947,
          "inside_target": true,
          "offset_ms": 2255,
          "recorded_at": 1775971168552
        },
        {
          "x": 746.94,
          "y": 334.98,
          "rel_x": 0.3464,
          "rel_y": 0.6301,
          "inside_target": true,
          "offset_ms": 2278,
          "recorded_at": 1775971168574
        },
        {
          "x": 757.36,
          "y": 343.19,
          "rel_x": 0.3636,
          "rel_y": 0.664,
          "inside_target": true,
          "offset_ms": 2299,
          "recorded_at": 1775971168596
        },
        {
          "x": 781.36,
          "y": 356.59,
          "rel_x": 0.4032,
          "rel_y": 0.7194,
          "inside_target": true,
          "offset_ms": 2323,
          "recorded_at": 1775971168619
        },
        {
          "x": 778.01,
          "y": 378.35,
          "rel_x": 0.3977,
          "rel_y": 0.8093,
          "inside_target": true,
          "offset_ms": 2346,
          "recorded_at": 1775971168643
        },
        {
          "x": 815.42,
          "y": 401.69,
          "rel_x": 0.4594,
          "rel_y": 0.9057,
          "inside_target": true,
          "offset_ms": 2367,
          "recorded_at": 1775971168664
        },
        {
          "x": 821.39,
          "y": 401.12,
          "rel_x": 0.4693,
          "rel_y": 0.9034,
          "inside_target": true,
          "offset_ms": 2389,
          "recorded_at": 1775971168686
        },
        {
          "x": 858.45,
          "y": 416.76,
          "rel_x": 0.5304,
          "rel_y": 0.968,
          "inside_target": true,
          "offset_ms": 2412,
          "recorded_at": 1775971168708
        },
        {
          "x": 877.75,
          "y": 427.99,
          "rel_x": 0.5623,
          "rel_y": 1.0144,
          "inside_target": false,
          "offset_ms": 2433,
          "recorded_at": 1775971168730
        },
        {
          "x": 899.26,
          "y": 442.58,
          "rel_x": 0.5978,
          "rel_y": 1.0747,
          "inside_target": false,
          "offset_ms": 2456,
          "recorded_at": 1775971168753
        },
        {
          "x": 902.39,
          "y": 436.15,
          "rel_x": 0.603,
          "rel_y": 1.0481,
          "inside_target": false,
          "offset_ms": 2478,
          "recorded_at": 1775971168775
        },
        {
          "x": 903.38,
          "y": 429.77,
          "rel_x": 0.6046,
          "rel_y": 1.0218,
          "inside_target": false,
          "offset_ms": 2499,
          "recorded_at": 1775971168796
        },
        {
          "x": 919.5,
          "y": 452.99,
          "rel_x": 0.6312,
          "rel_y": 1.1177,
          "inside_target": false,
          "offset_ms": 2522,
          "recorded_at": 1775971168819
        },
        {
          "x": 923.04,
          "y": 461.03,
          "rel_x": 0.637,
          "rel_y": 1.1509,
          "inside_target": false,
          "offset_ms": 2545,
          "recorded_at": 1775971168841
        },
        {
          "x": 911.61,
          "y": 446.4,
          "rel_x": 0.6182,
          "rel_y": 1.0905,
          "inside_target": false,
          "offset_ms": 2566,
          "recorded_at": 1775971168862
        },
        {
          "x": 867.98,
          "y": 425.57,
          "rel_x": 0.5462,
          "rel_y": 1.0044,
          "inside_target": false,
          "offset_ms": 2589,
          "recorded_at": 1775971168885
        },
        {
          "x": 860.42,
          "y": 435.45,
          "rel_x": 0.5337,
          "rel_y": 1.0452,
          "inside_target": false,
          "offset_ms": 2611,
          "recorded_at": 1775971168908
        },
        {
          "x": 845.91,
          "y": 410.07,
          "rel_x": 0.5098,
          "rel_y": 0.9404,
          "inside_target": true,
          "offset_ms": 2633,
          "recorded_at": 1775971168929
        },
        {
          "x": 845.78,
          "y": 406.64,
          "rel_x": 0.5095,
          "rel_y": 0.9262,
          "inside_target": true,
          "offset_ms": 2655,
          "recorded_at": 1775971168952
        },
        {
          "x": 854.42,
          "y": 391.7,
