{
  "participant_id": "00d0a0ae-63cf-43ca-b2b0-dafc5cbb08ad",
  "session_id": "53507ab6-c90f-47b4-a03b-92989b596a67",
  "created_at": "2026-04-11T10:15:20.343Z",
  "baseline": {
    "age_group": "25-34",
    "digital_confidence": "Moderate",
    "page_style": "Step-by-step guidance",
    "guidance_need": "Rarely",
    "screen_distraction": "Slightly",
    "dense_content_tolerance": "Very uncomfortable",
    "content_format": "Written text"
  },
  "tasks": {
    "task1": {
      "answer": "A book about user experience design",
      "correct": 1,
      "time_on_task_ms": 6282,
      "question_time_ms": 4399,
      "answer_changes": 0,
      "backtracking": 0,
      "hesitation": 0,
      "errors": 0
    },
    "task2": {
      "answer": "Room C301",
      "correct": 0,
      "time_on_task_ms": 4216,
      "question_time_ms": 2316,
      "answer_changes": 0,
      "backtracking": 0,
      "hesitation": 0,
      "errors": 1
    }
  },
  "raw_trials": [
    {
      "rt": 1609,
      "stimulus": "\n          <div class=\"card\">\n            <div class=\"logo-wrap\">\n              <img src=\"jyu-logo.svg\" alt=\"University of Jyvaskyla logo\" onerror=\"this.style.display='none'\">\n            </div>\n            <h1>Welcome to the University of Jyväskylä</h1>\n            <p>Thank you for taking part in this short research demo.</p>\n            <p class=\"muted\">This prototype demonstrates baseline profiling, WebGazer-based attention capture, behavioural logging, and adaptive interface recommendation.</p>\n          </div>\n        ",
      "response": 0,
      "phase": "university_intro",
      "trial_type": "html-button-response",
      "trial_index": 0,
      "time_elapsed": 1612,
      "internal_node_id": "0.0-0.0"
    },
    {
      "rt": 8616,
      "stimulus": "\n          <div class=\"card\">\n            <h2>Prototype Check</h2>\n            <p>This MVP runs in the browser and connects to a local backend for saving data and generating an adaptive recommendation.</p>\n            <p class=\"muted\">WebGazer starts here. If camera access is granted, gaze-derived indicators will be collected during the reading screens.</p>\n            <p id=\"webgazer-status\" class=\"small-note\">Initializing WebGazer...</p>\n          </div>\n        ",
      "response": 0,
      "phase": "prototype_check",
      "trial_type": "html-button-response",
      "trial_index": 1,
      "time_elapsed": 10233,
      "internal_node_id": "0.0-1.0"
    },
    {
      "rt": 29432,
      "response": {
        "age_group": "25-34",
        "digital_confidence": "Moderate",
        "page_style": "Step-by-step guidance",
        "guidance_need": "Rarely",
        "screen_distraction": "Slightly",
        "dense_content_tolerance": "Very uncomfortable",
        "content_format": "Written text"
      },
      "phase": "baseline",
      "trial_type": "survey-html-form",
      "trial_index": 2,
      "time_elapsed": 39671,
      "internal_node_id": "0.0-2.0"
    },
    {
      "rt": 932,
      "stimulus": "\n          <div class=\"card\">\n            <h2>Task 1</h2>\n            <p>Read the paragraph carefully, then answer one question.</p>\n          </div>\n        ",
      "response": 0,
      "phase": "task1_intro",
      "trial_type": "html-button-response",
      "trial_index": 3,
      "time_elapsed": 40604,
      "internal_node_id": "0.0-3.0"
    },
    {
      "rt": 948,
      "stimulus": "\n          <div class=\"card\">\n            <h2>Reading Task</h2>\n            <div id=\"task1-text-region\" class=\"info-box\">Lina is a university student who usually studies in the library after her classes. On Monday, she arrived at the library at 3:00 PM, spent one hour reading a research article, then worked on an assignment for two more hours. Before leaving, she borrowed a book about user experience design.</div>\n          </div>\n        ",
      "response": 0,
      "phase": "task1_reading",
      "trial_type": "html-button-response",
      "trial_index": 4,
      "time_elapsed": 41553,
      "internal_node_id": "0.0-4.0-0.0"
    },
    {
      "rt": 4399,
      "response": {
        "task1_answer": "A book about user experience design"
      },
      "question_order": [
        0
      ],
      "phase": "task1_question",
      "trial_type": "survey-multi-choice",
      "trial_index": 5,
      "time_elapsed": 45954,
      "internal_node_id": "0.0-4.0-1.0",
      "user_answer": "A book about user experience design",
      "correct_answer": "A book about user experience design",
      "correct": 1,
      "time_on_task_ms": 6282,
      "question_time_ms": 4399,
      "answer_changes": 0,
      "backtracking": 0,
      "hesitation": 0,
      "errors": 0
    },
    {
      "rt": 866,
      "stimulus": "\n          <div class=\"card\">\n            <h2>Task 2</h2>\n            <p>Read the information card and answer one question based on it.</p>\n          </div>\n        ",
      "response": 0,
      "phase": "task2_intro",
      "trial_type": "html-button-response",
      "trial_index": 6,
      "time_elapsed": 46821,
      "internal_node_id": "0.0-5.0"
    },
    {
      "rt": 1032,
      "stimulus": "\n          <div class=\"card\">\n            <h2>Workshop Information</h2>\n            <div id=\"task2-info-region\" class=\"info-box\">\n          <strong>Title:</strong> Introduction to Human-Computer Interaction<br>\n          <strong>Date:</strong> Thursday, May 15<br>\n          <strong>Time:</strong> 10:00 AM - 12:00 PM<br>\n          <strong>Location:</strong> Room B204<br>\n          <strong>Instructor:</strong> Dr. Sami\n        </div>\n          </div>\n        ",
      "response": 0,
      "phase": "task2_info",
      "trial_type": "html-button-response",
      "trial_index": 7,
      "time_elapsed": 47853,
      "internal_node_id": "0.0-6.0-0.0"
    },
    {
      "rt": 2316,
      "response": {
        "task2_answer": "Room C301"
      },
      "question_order": [
        0
      ],
      "phase": "task2_question",
      "trial_type": "survey-multi-choice",
      "trial_index": 8,
      "time_elapsed": 50170,
      "internal_node_id": "0.0-6.0-1.0",
      "user_answer": "Room C301",
      "correct_answer": "Room B204",
      "correct": 0,
      "time_on_task_ms": 4216,
      "question_time_ms": 2316,
      "answer_changes": 0,
      "backtracking": 0,
      "hesitation": 0,
      "errors": 1
    },
    {
      "rt": 5633,
      "stimulus": "\n            <div class=\"card\">\n              <h2>Experiment Completed</h2>\n              <p>Here is a summary of behavioural performance and gaze-derived indicators collected during the experiment.</p>\n\n              <div class=\"summary-grid\">\n                <div class=\"summary-item\">\n                  <span class=\"summary-label\">Task 1 result</span>\n                  <div class=\"summary-value\">\n                    <span class=\"status-pill status-correct\">Correct</span>\n                    <div class=\"metric-list\">\n                      <div class=\"metric-line\"><strong>Your answer:</strong> A book about user experience design</div>\n                      <div class=\"metric-line\"><strong>Correct answer:</strong> A book about user experience design</div>\n                      <div class=\"metric-line\"><strong>Time on task:</strong> 6.28 s</div>\n                      <div class=\"metric-line\"><strong>Question time:</strong> 4.40 s</div>\n                      <div class=\"metric-line\"><strong>Errors:</strong> 0</div>\n                      <div class=\"metric-line\"><strong>Answer changes:</strong> 0</div>\n                      <div class=\"metric-line\"><strong>Hesitation:</strong> No</div>\n                      <div class=\"metric-line\"><strong>Backtracking:</strong> No</div>\n                      \n                            <div class=\"metric-line compact-note\">No gaze samples were captured for this screen in this run.</div>\n                          \n                    </div>\n                  </div>\n                </div>\n\n                <div class=\"summary-item\">\n                  <span class=\"summary-label\">Task 2 result</span>\n                  <div class=\"summary-value\">\n                    <span class=\"status-pill status-wrong\">Incorrect</span>\n                    <div class=\"metric-list\">\n                      <div class=\"metric-line\"><strong>Your answer:</strong> Room C301</div>\n                      <div class=\"metric-line\"><strong>Correct answer:</strong> Room B204</div>\n                      <div class=\"metric-line\"><strong>Time on task:</strong> 4.22 s</div>\n                      <div class=\"metric-line\"><strong>Question time:</strong> 2.32 s</div>\n                      <div class=\"metric-line\"><strong>Errors:</strong> 1</div>\n                      <div class=\"metric-line\"><strong>Answer changes:</strong> 0</div>\n                      <div class=\"metric-line\"><strong>Hesitation:</strong> No</div>\n                      <div class=\"metric-line\"><strong>Backtracking:</strong> No</div>\n                      \n                            <div class=\"metric-line compact-note\">No gaze samples were captured for this screen in this run.</div>\n                          \n                    </div>\n                  </div>\n                </div>\n              </div>\n\n              <div class=\"score-box\">\n                <div><strong>Overall score: 1 / 2</strong></div>\n                <div style=\"margin-top:8px;\"><strong>Errors:</strong> 1</div>\n                <div style=\"margin-top:8px;\"><strong>WebGazer:</strong> Fallback mode</div>\n              </div>\n\n              <div class=\"button-row\">\n                <button type=\"button\" class=\"debug-btn\" onclick=\"window.open('gaze_debug.html', '_blank')\">\n                  Open Gaze Debug View\n                </button>\n              </div>\n            </div>\n          ",
      "response": 0,
      "phase": "end_screen",
      "trial_type": "html-button-response",
      "trial_index": 9,
      "time_elapsed": 55804,
      "internal_node_id": "0.0-7.0"
    }
  ],
  "gaze": {
    "webgazer_ready": false,
    "task1_reading": {
      "metrics": {
        "total_samples": 0,
        "in_target_samples": 0,
        "on_target_ratio": null,
        "first_fixation_latency_ms": null,
        "dwell_time_ms": 0,
        "region_width": 686,
        "region_height": 178.78125,
        "points": []
      },
      "raw_samples": []
    },
    "task2_info": {
      "metrics": {
        "total_samples": 0,
        "in_target_samples": 0,
        "on_target_ratio": null,
        "first_fixation_latency_ms": null,
        "dwell_time_ms": 0,
        "region_width": 686,
        "region_height": 212.9765625,
        "points": []
      },
      "raw_samples": []
    }
  }
}