{
  "participant_id": "422201c0-4b1f-4194-b8ff-e514897b7553",
  "session_id": "2e4b4303-ca40-4eaf-888a-c26c229d7eb2",
  "created_at": "2026-04-11T07:54:11.226Z",
  "baseline": {
    "age_group": "35-44",
    "digital_confidence": "Low",
    "page_style": "Simple page with fewer distractions",
    "guidance_need": "Rarely",
    "screen_distraction": "Slightly",
    "dense_content_tolerance": "Very uncomfortable",
    "content_format": "Visual summaries / infographics"
  },
  "tasks": {
    "task1": {
      "answer": "A book about user experience design",
      "correct": 1,
      "time_on_task_ms": 3617,
      "question_time_ms": 1899,
      "answer_changes": 0,
      "backtracking": 0,
      "hesitation": 0,
      "errors": 0
    },
    "task2": {
      "answer": "Main Hall",
      "correct": 0,
      "time_on_task_ms": 3283,
      "question_time_ms": 1432,
      "answer_changes": 0,
      "backtracking": 0,
      "hesitation": 0,
      "errors": 1
    }
  },
  "raw_trials": [
    {
      "rt": 776,
      "stimulus": "\n          <div class=\"card\">\n            <div class=\"logo-wrap\">\n              <img src=\"jyu-logo.svg\" alt=\"University of Jyvaskyla logo\" onerror=\"this.style.display='none'\">\n            </div>\n            <h1>Welcome to the University of Jyväskylä</h1>\n            <p>Thank you for taking part in this short research demo.</p>\n            <p class=\"muted\">This prototype demonstrates baseline profiling, WebGazer-based attention capture, behavioural logging, and adaptive interface recommendation.</p>\n          </div>\n        ",
      "response": 0,
      "phase": "university_intro",
      "trial_type": "html-button-response",
      "trial_index": 0,
      "time_elapsed": 778,
      "internal_node_id": "0.0-0.0"
    },
    {
      "rt": 3982,
      "stimulus": "\n          <div class=\"card\">\n            <h2>Prototype Check</h2>\n            <p>This MVP runs in the browser and connects to a local backend for saving data and generating an adaptive recommendation.</p>\n            <p class=\"muted\">WebGazer starts here. If camera access is granted, gaze-derived indicators will be collected during the reading screens.</p>\n            <p id=\"webgazer-status\" class=\"small-note\">Initializing WebGazer...</p>\n          </div>\n        ",
      "response": 0,
      "phase": "prototype_check",
      "trial_type": "html-button-response",
      "trial_index": 1,
      "time_elapsed": 4761,
      "internal_node_id": "0.0-1.0"
    },
    {
      "rt": 10732,
      "response": {
        "age_group": "35-44",
        "digital_confidence": "Low",
        "page_style": "Simple page with fewer distractions",
        "guidance_need": "Rarely",
        "screen_distraction": "Slightly",
        "dense_content_tolerance": "Very uncomfortable",
        "content_format": "Visual summaries / infographics"
      },
      "phase": "baseline",
      "trial_type": "survey-html-form",
      "trial_index": 2,
      "time_elapsed": 15494,
      "internal_node_id": "0.0-2.0"
    },
    {
      "rt": 882,
      "stimulus": "\n          <div class=\"card\">\n            <h2>Task 1</h2>\n            <p>Read the paragraph carefully, then answer one question.</p>\n          </div>\n        ",
      "response": 0,
      "phase": "task1_intro",
      "trial_type": "html-button-response",
      "trial_index": 3,
      "time_elapsed": 16377,
      "internal_node_id": "0.0-3.0"
    },
    {
      "rt": 833,
      "stimulus": "\n          <div class=\"card\">\n            <h2>Reading Task</h2>\n            <div id=\"task1-text-region\" class=\"info-box\">Lina is a university student who usually studies in the library after her classes. On Monday, she arrived at the library at 3:00 PM, spent one hour reading a research article, then worked on an assignment for two more hours. Before leaving, she borrowed a book about user experience design.</div>\n          </div>\n        ",
      "response": 0,
      "phase": "task1_reading",
      "trial_type": "html-button-response",
      "trial_index": 4,
      "time_elapsed": 17211,
      "internal_node_id": "0.0-4.0-0.0"
    },
    {
      "rt": 1899,
      "response": {
        "task1_answer": "A book about user experience design"
      },
      "question_order": [
        0
      ],
      "phase": "task1_question",
      "trial_type": "survey-multi-choice",
      "trial_index": 5,
      "time_elapsed": 19111,
      "internal_node_id": "0.0-4.0-1.0",
      "user_answer": "A book about user experience design",
      "correct_answer": "A book about user experience design",
      "correct": 1,
      "time_on_task_ms": 3617,
      "question_time_ms": 1899,
      "answer_changes": 0,
      "backtracking": 0,
      "hesitation": 0,
      "errors": 0
    },
    {
      "rt": 749,
      "stimulus": "\n          <div class=\"card\">\n            <h2>Task 2</h2>\n            <p>Read the information card and answer one question based on it.</p>\n          </div>\n        ",
      "response": 0,
      "phase": "task2_intro",
      "trial_type": "html-button-response",
      "trial_index": 6,
      "time_elapsed": 19861,
      "internal_node_id": "0.0-5.0"
    },
    {
      "rt": 1099,
      "stimulus": "\n          <div class=\"card\">\n            <h2>Workshop Information</h2>\n            <div id=\"task2-info-region\" class=\"info-box\">\n          <strong>Title:</strong> Introduction to Human-Computer Interaction<br>\n          <strong>Date:</strong> Thursday, May 15<br>\n          <strong>Time:</strong> 10:00 AM - 12:00 PM<br>\n          <strong>Location:</strong> Room B204<br>\n          <strong>Instructor:</strong> Dr. Sami\n        </div>\n          </div>\n        ",
      "response": 0,
      "phase": "task2_info",
      "trial_type": "html-button-response",
      "trial_index": 7,
      "time_elapsed": 20961,
      "internal_node_id": "0.0-6.0-0.0"
    },
    {
      "rt": 1432,
      "response": {
        "task2_answer": "Main Hall"
      },
      "question_order": [
        0
      ],
      "phase": "task2_question",
      "trial_type": "survey-multi-choice",
      "trial_index": 8,
      "time_elapsed": 22394,
      "internal_node_id": "0.0-6.0-1.0",
      "user_answer": "Main Hall",
      "correct_answer": "Room B204",
      "correct": 0,
      "time_on_task_ms": 3283,
      "question_time_ms": 1432,
      "answer_changes": 0,
      "backtracking": 0,
      "hesitation": 0,
      "errors": 1
    },
    {
      "rt": 129879,
      "stimulus": "\n            <div class=\"card\">\n              <h2>Experiment Completed</h2>\n              <p>Here is a summary of your baseline answers, behavioural metrics, and gaze-derived indicators.</p>\n\n              <div class=\"summary-grid\">\n                <div class=\"summary-item\">\n                  <span class=\"summary-label\">Age group</span>\n                  <div class=\"summary-value\">35-44</div>\n                </div>\n\n                <div class=\"summary-item\">\n                  <span class=\"summary-label\">Digital confidence</span>\n                  <div class=\"summary-value\">Low</div>\n                </div>\n\n                <div class=\"summary-item\">\n                  <span class=\"summary-label\">Preferred page style</span>\n                  <div class=\"summary-value\">Simple page with fewer distractions</div>\n                </div>\n\n                <div class=\"summary-item\">\n                  <span class=\"summary-label\">Guidance need</span>\n                  <div class=\"summary-value\">Rarely</div>\n                </div>\n\n                <div class=\"summary-item\">\n                  <span class=\"summary-label\">Distraction sensitivity</span>\n                  <div class=\"summary-value\">Slightly</div>\n                </div>\n\n                <div class=\"summary-item\">\n                  <span class=\"summary-label\">Dense-content comfort</span>\n                  <div class=\"summary-value\">Very uncomfortable</div>\n                </div>\n\n                <div class=\"summary-item\">\n                  <span class=\"summary-label\">Preferred content format</span>\n                  <div class=\"summary-value\">Visual summaries / infographics</div>\n                </div>\n\n                <div class=\"summary-item\">\n                  <span class=\"summary-label\">Task 1 result</span>\n                  <div class=\"summary-value\">\n                    <span class=\"status-pill status-correct\">Correct</span>\n                    <div class=\"metric-list\">\n                      <div class=\"metric-line\"><strong>Your answer:</strong> A book about user experience design</div>\n                      <div class=\"metric-line\"><strong>Correct answer:</strong> A book about user experience design</div>\n                      <div class=\"metric-line\"><strong>Time on task:</strong> 3.62 s</div>\n                      <div class=\"metric-line\"><strong>Question time:</strong> 1.90 s</div>\n                      <div class=\"metric-line\"><strong>Errors:</strong> 0</div>\n                      <div class=\"metric-line\"><strong>Answer changes:</strong> 0</div>\n                      <div class=\"metric-line\"><strong>Hesitation:</strong> No</div>\n                      <div class=\"metric-line\"><strong>Backtracking:</strong> No</div>\n                      \n                            <div class=\"metric-line\"><strong>Gaze samples:</strong> 0</div>\n                            <div class=\"metric-line\"><strong>On-target ratio:</strong> -</div>\n                            <div class=\"metric-line\"><strong>First fixation latency:</strong> -</div>\n                            <div class=\"metric-line\"><strong>Dwell time on target:</strong> 0.00 s</div>\n                          \n                    </div>\n                  </div>\n                </div>\n\n                <div class=\"summary-item\">\n                  <span class=\"summary-label\">Task 2 result</span>\n                  <div class=\"summary-value\">\n                    <span class=\"status-pill status-wrong\">Incorrect</span>\n                    <div class=\"metric-list\">\n                      <div class=\"metric-line\"><strong>Your answer:</strong> Main Hall</div>\n                      <div class=\"metric-line\"><strong>Correct answer:</strong> Room B204</div>\n                      <div class=\"metric-line\"><strong>Time on task:</strong> 3.28 s</div>\n                      <div class=\"metric-line\"><strong>Question time:</strong> 1.43 s</div>\n                      <div class=\"metric-line\"><strong>Errors:</strong> 1</div>\n                      <div class=\"metric-line\"><strong>Answer changes:</strong> 0</div>\n                      <div class=\"metric-line\"><strong>Hesitation:</strong> No</div>\n                      <div class=\"metric-line\"><strong>Backtracking:</strong> No</div>\n                      \n                            <div class=\"metric-line\"><strong>Gaze samples:</strong> 0</div>\n                            <div class=\"metric-line\"><strong>On-target ratio:</strong> -</div>\n                            <div class=\"metric-line\"><strong>First fixation latency:</strong> -</div>\n                            <div class=\"metric-line\"><strong>Dwell time on target:</strong> 0.00 s</div>\n                          \n                    </div>\n                  </div>\n                </div>\n              </div>\n\n              <div class=\"score-box\">\n                <div><strong>Overall score: 1 / 2</strong></div>\n                <div style=\"margin-top:8px;\"><strong>Errors:</strong> 1</div>\n                <div style=\"margin-top:8px;\"><strong>WebGazer:</strong> Enabled</div>\n              </div>\n\n              <div class=\"summary-item\" style=\"margin-top:18px;\">\n                <span class=\"summary-label\">Detailed heatmap and gaze statistics</span>\n                <div class=\"summary-value\">\n                  Open the separate debug view to inspect the heatmaps and detailed gaze statistics collected during the reading screens.\n                </div>\n                <button id=\"open-gaze-debug\" class=\"debug-btn\">Open Gaze Debug View</button>\n              </div>\n            </div>\n          ",
      "response": 0,
      "phase": "end_screen",
      "trial_type": "html-button-response",
      "trial_index": 9,
      "time_elapsed": 152278,
      "internal_node_id": "0.0-7.0"
    }
  ],
  "gaze": {
    "webgazer_ready": true,
    "task1_reading": {
      "metrics": {
        "total_samples": 0,
        "in_target_samples": 0,
        "on_target_ratio": null,
        "first_fixation_latency_ms": null,
        "dwell_time_ms": 0,
        "region_width": 679,
        "region_height": 242,
        "points": []
      },
      "raw_samples": []
    },
    "task2_info": {
      "metrics": {
        "total_samples": 0,
        "in_target_samples": 0,
        "on_target_ratio": null,
        "first_fixation_latency_ms": null,
        "dwell_time_ms": 0,
        "region_width": 679,
        "region_height": 242,
        "points": []
      },
      "raw_samples": []
    }
  }
}